ExperimentName,Subject,Hunger.RESP,LastMeal.RESP,Block,Blocklist,Blocklist.Cycle,Blocklist.Sample,BlockNumber,Attribute3,CravingRating.RESP,CravingRating.RT,Effectiveness.RESP,Effectiveness.RT,Effort.RESP,Effort.RT,FoodPics,FoodStim,Image[Trial],ImageType,Procedure[Trial],Running[Trial],StratList,StratQ,StratQTrial,TrialList,TrialList.Cycle,TrialList.Sample,TrialNumber
SRS_1,109a,4,3,9,1,1,1,0,resist,1,1301,5,6335,2,2642,32,0056.jpg,0056.jpg,2,TrialProc,TrialList,45,resist,resist,1,1,1,1
SRS_1,109a,4,3,9,1,1,1,0,resist,5,1704,5,5758,4,5232,30,0049.jpg,0049.jpg,2,TrialProc,TrialList,37,resist,resist,2,1,2,2
SRS_1,109a,4,3,9,1,1,1,0,reappraisal,1,1214,6,3716,2,4815,47,0132.jpg,0132.jpg,3,TrialProc,TrialList,6,reappraisal,reappraisal,3,1,3,3
SRS_1,109a,4,3,9,1,1,1,0,resist,6,2408,5,3745,5,3818,39,0089.jpg,0089.jpg,2,TrialProc,TrialList,54,resist,resist,4,1,4,4
SRS_1,109a,4,3,9,1,1,1,0,reappraisal,3,2138,6,4974,2,4231,3,0009.jpg,0009.jpg,1,TrialProc,TrialList,4,reappraisal,reappraisal,5,1,5,5
SRS_1,109a,4,3,9,1,1,1,0,resist,6,2782,5,3224,5,3735,49,0292.jpg,0292.jpg,3,TrialProc,TrialList,34,resist,resist,6,1,6,6
SRS_1,109a,4,3,9,1,1,1,0,reappraisal,2,3081,4,4180,1,3884,11,0021.jpg,0021.jpg,1,TrialProc,TrialList,22,reappraisal,reappraisal,7,1,7,7
SRS_1,109a,4,3,9,1,1,1,0,resist,4,4369,6,4257,4,5487,22,0155.jpg,0155.jpg,2,TrialProc,TrialList,43,resist,resist,8,1,8,8
SRS_1,109a,4,3,9,1,1,1,0,resist,7,2867,5,3069,6,1914,31,0055.jpg,0055.jpg,2,TrialProc,TrialList,51,resist,resist,9,1,9,9
SRS_1,109a,4,3,9,1,1,1,0,reappraisal,5,1709,7,2528,5,2946,48,0166.jpg,0166.jpg,3,TrialProc,TrialList,20,reappraisal,reappraisal,10,1,10,10
SRS_1,109a,4,3,9,1,1,1,0,resist,4,2396,4,6088,3,6908,58,0441.jpg,0441.jpg,3,TrialProc,TrialList,59,resist,resist,11,1,11,11
SRS_1,109a,4,3,9,1,1,1,0,reappraisal,3,3280,4,3018,5,6081,8,0042.jpg,0042.jpg,1,TrialProc,TrialList,24,reappraisal,reappraisal,12,1,12,12
SRS_1,109a,4,3,9,1,1,1,0,reappraisal,3,2342,6,3798,3,3406,57,0357.jpg,0357.jpg,3,TrialProc,TrialList,1,reappraisal,reappraisal,13,1,13,13
SRS_1,109a,4,3,9,1,1,1,0,reappraisal,5,3325,6,5399,4,3015,7,0036.jpg,0036.jpg,1,TrialProc,TrialList,14,reappraisal,reappraisal,14,1,14,14
SRS_1,109a,4,3,9,1,1,1,0,resist,5,1958,5,2800,5,3392,10,0048.jpg,0048.jpg,1,TrialProc,TrialList,50,resist,resist,15,1,15,15
SRS_1,109a,4,3,9,1,1,1,0,resist,4,3272,4,2628,2,2602,52,0164.jpg,0164.jpg,3,TrialProc,TrialList,46,resist,resist,16,1,16,16
SRS_1,109a,4,3,9,1,1,1,0,resist,1,802,6,4987,1,1723,44,0514.jpg,0514.jpg,3,TrialProc,TrialList,42,resist,resist,17,1,17,17
SRS_1,109a,4,3,9,1,1,1,0,reappraisal,7,1630,6,2789,6,2613,56,0293.jpg,0293.jpg,3,TrialProc,TrialList,28,reappraisal,reappraisal,18,1,18,18
SRS_1,109a,4,3,9,1,1,1,0,resist,6,1740,6,2859,4,8560,36,0080.jpg,0080.jpg,2,TrialProc,TrialList,58,resist,resist,19,1,19,19
SRS_1,109a,4,3,9,1,1,1,0,reappraisal,5,2217,7,3589,5,3549,5,0016.jpg,0016.jpg,1,TrialProc,TrialList,15,reappraisal,reappraisal,20,1,20,20
SRS_1,109a,4,3,10,2,1,2,20,reappraisal,6,2235,5,4792,6,3232,53,0165.jpg,0165.jpg,3,TrialProc,TrialList,16,reappraisal,reappraisal,1,2,21,1
SRS_1,109a,4,3,10,2,1,2,20,resist,5,2087,6,1765,4,2390,18,0138.jpg,0138.jpg,1,TrialProc,TrialList,48,resist,resist,2,2,22,2
SRS_1,109a,4,3,10,2,1,2,20,resist,1,1278,5,3132,2,2126,28,0186.jpg,0186.jpg,2,TrialProc,TrialList,32,resist,resist,3,2,23,3
SRS_1,109a,4,3,10,2,1,2,20,reappraisal,4,2617,6,4931,5,6413,29,0189.jpg,0189.jpg,2,TrialProc,TrialList,23,reappraisal,reappraisal,4,2,24,4
SRS_1,109a,4,3,10,2,1,2,20,reappraisal,6,1645,7,1331,6,3325,14,0117.jpg,0117.jpg,1,TrialProc,TrialList,3,reappraisal,reappraisal,5,2,25,5
SRS_1,109a,4,3,10,2,1,2,20,resist,7,1176,4,4596,6,3132,46,0120.jpg,0120.jpg,3,TrialProc,TrialList,33,resist,resist,6,2,26,6
SRS_1,109a,4,3,10,2,1,2,20,resist,2,1614,5,3807,2,3150,23,0157.jpg,0157.jpg,2,TrialProc,TrialList,55,resist,resist,7,2,27,7
SRS_1,109a,4,3,10,2,1,2,20,resist,5,3568,6,5407,3,2927,9,0043.jpg,0043.jpg,1,TrialProc,TrialList,39,resist,resist,8,2,28,8
SRS_1,109a,4,3,10,2,1,2,20,resist,3,2617,5,4841,6,2999,21,0193.jpg,0193.jpg,2,TrialProc,TrialList,41,resist,resist,9,2,29,9
SRS_1,109a,4,3,10,2,1,2,20,reappraisal,1,1327,6,3061,2,634,37,0082.jpg,0082.jpg,2,TrialProc,TrialList,29,reappraisal,reappraisal,10,2,30,10
SRS_1,109a,4,3,10,2,1,2,20,reappraisal,7,592,6,5981,4,2837,24,0400.jpg,0400.jpg,2,TrialProc,TrialList,30,reappraisal,reappraisal,11,2,31,11
SRS_1,109a,4,3,10,2,1,2,20,resist,5,1907,5,1932,6,2023,50,0331.jpg,0331.jpg,3,TrialProc,TrialList,49,resist,resist,12,2,32,12
SRS_1,109a,4,3,10,2,1,2,20,resist,4,2141,4,4368,6,4681,54,0173.jpg,0173.jpg,3,TrialProc,TrialList,52,resist,resist,13,2,33,13
SRS_1,109a,4,3,10,2,1,2,20,reappraisal,2,1757,5,7800,4,3272,12,0063.jpg,0063.jpg,1,TrialProc,TrialList,13,reappraisal,reappraisal,14,2,34,14
SRS_1,109a,4,3,10,2,1,2,20,reappraisal,5,1693,7,2480,5,1028,59,0465.jpg,0465.jpg,3,TrialProc,TrialList,8,reappraisal,reappraisal,15,2,35,15
SRS_1,109a,4,3,10,2,1,2,20,resist,6,1195,4,3177,4,4601,4,0013.jpg,0013.jpg,1,TrialProc,TrialList,40,resist,resist,16,2,36,16
SRS_1,109a,4,3,10,2,1,2,20,reappraisal,7,681,7,1436,6,3035,41,0097.jpg,0097.jpg,3,TrialProc,TrialList,18,reappraisal,reappraisal,17,2,37,17
SRS_1,109a,4,3,10,2,1,2,20,reappraisal,5,1745,6,2654,4,7220,55,0182.jpg,0182.jpg,3,TrialProc,TrialList,12,reappraisal,reappraisal,18,2,38,18
SRS_1,109a,4,3,10,2,1,2,20,reappraisal,5,1675,7,2897,6,7213,19,0148.jpg,0148.jpg,1,TrialProc,TrialList,7,reappraisal,reappraisal,19,2,39,19
SRS_1,109a,4,3,10,2,1,2,20,resist,6,1469,6,2285,2,2354,17,0128.jpg,0128.jpg,1,TrialProc,TrialList,36,resist,resist,20,2,40,20
SRS_1,109a,4,3,11,3,1,3,40,resist,7,673,3,2251,5,3576,38,0083.jpg,0083.jpg,2,TrialProc,TrialList,38,resist,resist,1,3,41,1
SRS_1,109a,4,3,11,3,1,3,40,resist,7,1073,5,1979,4,4267,60,0114.jpg,0114.jpg,3,TrialProc,TrialList,53,resist,resist,2,3,42,2
SRS_1,109a,4,3,11,3,1,3,40,resist,7,601,4,3106,2,3790,2,0007.jpg,0007.jpg,1,TrialProc,TrialList,31,resist,resist,3,3,43,3
SRS_1,109a,4,3,11,3,1,3,40,reappraisal,5,3630,7,2098,3,3638,45,0111.jpg,0111.jpg,3,TrialProc,TrialList,10,reappraisal,reappraisal,4,3,44,4
SRS_1,109a,4,3,11,3,1,3,40,reappraisal,3,2172,7,3312,4,3523,16,0124.jpg,0124.jpg,1,TrialProc,TrialList,2,reappraisal,reappraisal,5,3,45,5
SRS_1,109a,4,3,11,3,1,3,40,resist,6,1566,6,1449,6,7079,26,0180.jpg,0180.jpg,2,TrialProc,TrialList,44,resist,resist,6,3,46,6
SRS_1,109a,4,3,11,3,1,3,40,reappraisal,1,940,5,7173,2,2735,15,0121.jpg,0121.jpg,1,TrialProc,TrialList,9,reappraisal,reappraisal,7,3,47,7
SRS_1,109a,4,3,11,3,1,3,40,reappraisal,6,1545,4,4286,7,5211,1,0006.jpg,0006.jpg,1,TrialProc,TrialList,19,reappraisal,reappraisal,8,3,48,8
SRS_1,109a,4,3,11,3,1,3,40,resist,5,1482,6,3734,3,3992,35,0074.jpg,0074.jpg,2,TrialProc,TrialList,60,resist,resist,9,3,49,9
SRS_1,109a,4,3,11,3,1,3,40,reappraisal,6,848,7,2181,5,2965,40,0090.jpg,0090.jpg,2,TrialProc,TrialList,26,reappraisal,reappraisal,10,3,50,10
SRS_1,109a,4,3,11,3,1,3,40,resist,6,2310,2,2165,7,2126,43,0106.jpg,0106.jpg,3,TrialProc,TrialList,47,resist,resist,11,3,51,11
SRS_1,109a,4,3,11,3,1,3,40,resist,5,1120,5,1573,1,5413,27,0183.jpg,0183.jpg,2,TrialProc,TrialList,56,resist,resist,12,3,52,12
SRS_1,109a,4,3,11,3,1,3,40,reappraisal,4,1749,7,1811,2,1594,20,0150.jpg,0150.jpg,1,TrialProc,TrialList,27,reappraisal,reappraisal,13,3,53,13
SRS_1,109a,4,3,11,3,1,3,40,reappraisal,7,1441,6,2716,4,6623,33,0060.jpg,0060.jpg,2,TrialProc,TrialList,21,reappraisal,reappraisal,14,3,54,14
SRS_1,109a,4,3,11,3,1,3,40,reappraisal,3,2022,5,6797,4,7845,6,0027.jpg,0027.jpg,1,TrialProc,TrialList,5,reappraisal,reappraisal,15,3,55,15
SRS_1,109a,4,3,11,3,1,3,40,reappraisal,7,1315,6,3397,4,3461,42,0103.jpg,0103.jpg,3,TrialProc,TrialList,11,reappraisal,reappraisal,16,3,56,16
SRS_1,109a,4,3,11,3,1,3,40,resist,3,1722,5,3004,5,6068,51,0163.jpg,0163.jpg,3,TrialProc,TrialList,57,resist,resist,17,3,57,17
SRS_1,109a,4,3,11,3,1,3,40,reappraisal,3,1409,6,1879,5,1539,25,0244.jpg,0244.jpg,2,TrialProc,TrialList,17,reappraisal,reappraisal,18,3,58,18
SRS_1,109a,4,3,11,3,1,3,40,resist,2,2165,6,1846,5,1972,13,0094.jpg,0094.jpg,1,TrialProc,TrialList,35,resist,resist,19,3,59,19
SRS_1,109a,4,3,11,3,1,3,40,reappraisal,7,636,3,2635,6,3818,34,0062.jpg,0062.jpg,2,TrialProc,TrialList,25,reappraisal,reappraisal,20,3,60,20
SRS_1,1092,5,4,9,1,1,1,0,reappraisal,3,2413,4,3998,4,3686,41,0097.jpg,0097.jpg,3,TrialProc,TrialList,10,reappraisal,reappraisal,1,1,1,1
SRS_1,1092,5,4,9,1,1,1,0,reappraisal,6,2682,3,1854,4,9100,23,0157.jpg,0157.jpg,2,TrialProc,TrialList,26,reappraisal,reappraisal,2,1,2,2
SRS_1,1092,5,4,9,1,1,1,0,reappraisal,6,1928,5,6395,7,1115,29,0189.jpg,0189.jpg,2,TrialProc,TrialList,24,reappraisal,reappraisal,3,1,3,3
SRS_1,1092,5,4,9,1,1,1,0,resist,1,1134,7,4143,1,1625,39,0089.jpg,0089.jpg,2,TrialProc,TrialList,60,resist,resist,4,1,4,4
SRS_1,1092,5,4,9,1,1,1,0,resist,1,831,7,2885,1,2537,57,0357.jpg,0357.jpg,3,TrialProc,TrialList,53,resist,resist,5,1,5,5
SRS_1,1092,5,4,9,1,1,1,0,reappraisal,1,779,2,1300,2,4351,55,0182.jpg,0182.jpg,3,TrialProc,TrialList,13,reappraisal,reappraisal,6,1,6,6
SRS_1,1092,5,4,9,1,1,1,0,resist,2,1866,4,7090,2,1327,2,0007.jpg,0007.jpg,1,TrialProc,TrialList,40,resist,resist,7,1,7,7
SRS_1,1092,5,4,9,1,1,1,0,reappraisal,1,705,7,420,1,6610,44,0514.jpg,0514.jpg,3,TrialProc,TrialList,2,reappraisal,reappraisal,8,1,8,8
SRS_1,1092,5,4,9,1,1,1,0,resist,3,2626,4,1280,1,6213,25,0244.jpg,0244.jpg,2,TrialProc,TrialList,31,resist,resist,9,1,9,9
SRS_1,1092,5,4,9,1,1,1,0,reappraisal,4,428,4,4728,3,7770,18,0138.jpg,0138.jpg,1,TrialProc,TrialList,28,reappraisal,reappraisal,10,1,10,10
SRS_1,1092,5,4,9,1,1,1,0,reappraisal,6,571,4,14364,4,6886,58,0441.jpg,0441.jpg,3,TrialProc,TrialList,12,reappraisal,reappraisal,11,1,11,11
SRS_1,1092,5,4,9,1,1,1,0,reappraisal,1,330,6,10508,3,2816,48,0166.jpg,0166.jpg,3,TrialProc,TrialList,11,reappraisal,reappraisal,12,1,12,12
SRS_1,1092,5,4,9,1,1,1,0,reappraisal,1,399,5,6258,4,3495,21,0193.jpg,0193.jpg,2,TrialProc,TrialList,30,reappraisal,reappraisal,13,1,13,13
SRS_1,1092,5,4,9,1,1,1,0,resist,7,1107,3,5252,6,1946,9,0043.jpg,0043.jpg,1,TrialProc,TrialList,50,resist,resist,14,1,14,14
SRS_1,1092,5,4,9,1,1,1,0,resist,7,2284,6,1590,7,1958,33,0060.jpg,0060.jpg,2,TrialProc,TrialList,48,resist,resist,15,1,15,15
SRS_1,1092,5,4,9,1,1,1,0,resist,1,87,5,8721,2,5077,46,0120.jpg,0120.jpg,3,TrialProc,TrialList,44,resist,resist,16,1,16,16
SRS_1,1092,5,4,9,1,1,1,0,resist,2,266,6,4497,3,3413,28,0186.jpg,0186.jpg,2,TrialProc,TrialList,45,resist,resist,17,1,17,17
SRS_1,1092,5,4,9,1,1,1,0,reappraisal,5,4109,5,9590,4,8111,8,0042.jpg,0042.jpg,1,TrialProc,TrialList,29,reappraisal,reappraisal,18,1,18,18
SRS_1,1092,5,4,9,1,1,1,0,reappraisal,1,707,6,4031,2,2726,27,0183.jpg,0183.jpg,2,TrialProc,TrialList,3,reappraisal,reappraisal,19,1,19,19
SRS_1,1092,5,4,9,1,1,1,0,reappraisal,4,560,4,7089,4,3454,40,0090.jpg,0090.jpg,2,TrialProc,TrialList,20,reappraisal,reappraisal,20,1,20,20
SRS_1,1092,5,4,10,2,1,2,20,reappraisal,3,1274,4,12055,3,3125,1,0006.jpg,0006.jpg,1,TrialProc,TrialList,25,reappraisal,reappraisal,1,2,21,1
SRS_1,1092,5,4,10,2,1,2,20,resist,3,1696,4,5450,4,2800,19,0148.jpg,0148.jpg,1,TrialProc,TrialList,55,resist,resist,2,2,22,2
SRS_1,1092,5,4,10,2,1,2,20,resist,5,1728,4,6119,5,4755,38,0083.jpg,0083.jpg,2,TrialProc,TrialList,36,resist,resist,3,2,23,3
SRS_1,1092,5,4,10,2,1,2,20,reappraisal,4,3908,4,3785,4,1866,26,0180.jpg,0180.jpg,2,TrialProc,TrialList,17,reappraisal,reappraisal,4,2,24,4
SRS_1,1092,5,4,10,2,1,2,20,reappraisal,2,303,6,1627,3,2689,15,0121.jpg,0121.jpg,1,TrialProc,TrialList,23,reappraisal,reappraisal,5,2,25,5
SRS_1,1092,5,4,10,2,1,2,20,resist,7,1173,3,1017,5,1720,54,0173.jpg,0173.jpg,3,TrialProc,TrialList,33,resist,resist,6,2,26,6
SRS_1,1092,5,4,10,2,1,2,20,reappraisal,7,1203,3,330,6,1260,30,0049.jpg,0049.jpg,2,TrialProc,TrialList,21,reappraisal,reappraisal,7,2,27,7
SRS_1,1092,5,4,10,2,1,2,20,reappraisal,5,497,4,571,5,692,13,0094.jpg,0094.jpg,1,TrialProc,TrialList,6,reappraisal,reappraisal,8,2,28,8
SRS_1,1092,5,4,10,2,1,2,20,resist,2,528,5,6294,3,3547,22,0155.jpg,0155.jpg,2,TrialProc,TrialList,52,resist,resist,9,2,29,9
SRS_1,1092,5,4,10,2,1,2,20,resist,4,4316,5,5490,4,1862,7,0036.jpg,0036.jpg,1,TrialProc,TrialList,56,resist,resist,10,2,30,10
SRS_1,1092,5,4,10,2,1,2,20,reappraisal,7,1260,3,972,7,7420,6,0027.jpg,0027.jpg,1,TrialProc,TrialList,1,reappraisal,reappraisal,11,2,31,11
SRS_1,1092,5,4,10,2,1,2,20,reappraisal,4,339,5,7420,4,6772,59,0465.jpg,0465.jpg,3,TrialProc,TrialList,19,reappraisal,reappraisal,12,2,32,12
SRS_1,1092,5,4,10,2,1,2,20,resist,3,509,6,833,3,3503,50,0331.jpg,0331.jpg,3,TrialProc,TrialList,47,resist,resist,13,2,33,13
SRS_1,1092,5,4,10,2,1,2,20,resist,5,291,4,432,4,1710,11,0021.jpg,0021.jpg,1,TrialProc,TrialList,54,resist,resist,14,2,34,14
SRS_1,1092,5,4,10,2,1,2,20,reappraisal,6,746,4,454,6,476,32,0056.jpg,0056.jpg,2,TrialProc,TrialList,16,reappraisal,reappraisal,15,2,35,15
SRS_1,1092,5,4,10,2,1,2,20,resist,3,592,5,395,3,3291,4,0013.jpg,0013.jpg,1,TrialProc,TrialList,41,resist,resist,16,2,36,16
SRS_1,1092,5,4,10,2,1,2,20,reappraisal,6,4815,4,1565,3,6278,36,0080.jpg,0080.jpg,2,TrialProc,TrialList,4,reappraisal,reappraisal,17,2,37,17
SRS_1,1092,5,4,10,2,1,2,20,resist,2,339,5,5222,4,3038,12,0063.jpg,0063.jpg,1,TrialProc,TrialList,37,resist,resist,18,2,38,18
SRS_1,1092,5,4,10,2,1,2,20,resist,5,756,4,10158,4,1456,49,0292.jpg,0292.jpg,3,TrialProc,TrialList,38,resist,resist,19,2,39,19
SRS_1,1092,5,4,10,2,1,2,20,resist,4,381,5,4416,3,1815,52,0164.jpg,0164.jpg,3,TrialProc,TrialList,35,resist,resist,20,2,40,20
SRS_1,1092,5,4,11,3,1,3,40,resist,4,980,4,432,5,783,10,0048.jpg,0048.jpg,1,TrialProc,TrialList,32,resist,resist,1,3,41,1
SRS_1,1092,5,4,11,3,1,3,40,resist,4,511,4,648,5,3157,16,0124.jpg,0124.jpg,1,TrialProc,TrialList,34,resist,resist,2,3,42,2
SRS_1,1092,5,4,11,3,1,3,40,reappraisal,4,1959,4,710,3,3769,51,0163.jpg,0163.jpg,3,TrialProc,TrialList,22,reappraisal,reappraisal,3,3,43,3
SRS_1,1092,5,4,11,3,1,3,40,reappraisal,4,7715,5,423,4,2750,17,0128.jpg,0128.jpg,1,TrialProc,TrialList,18,reappraisal,reappraisal,4,3,44,4
SRS_1,1092,5,4,11,3,1,3,40,resist,1,1288,6,1069,1,2610,37,0082.jpg,0082.jpg,2,TrialProc,TrialList,51,resist,resist,5,3,45,5
SRS_1,1092,5,4,11,3,1,3,40,resist,7,1593,2,4557,7,1719,14,0117.jpg,0117.jpg,1,TrialProc,TrialList,58,resist,resist,6,3,46,6
SRS_1,1092,5,4,11,3,1,3,40,resist,3,306,5,2463,3,4044,35,0074.jpg,0074.jpg,2,TrialProc,TrialList,43,resist,resist,7,3,47,7
SRS_1,1092,5,4,11,3,1,3,40,reappraisal,3,3546,4,4250,4,1535,53,0165.jpg,0165.jpg,3,TrialProc,TrialList,7,reappraisal,reappraisal,8,3,48,8
SRS_1,1092,5,4,11,3,1,3,40,resist,5,698,5,1268,5,1625,42,0103.jpg,0103.jpg,3,TrialProc,TrialList,49,resist,resist,9,3,49,9
SRS_1,1092,5,4,11,3,1,3,40,resist,1,1167,7,7611,2,3690,47,0132.jpg,0132.jpg,3,TrialProc,TrialList,57,resist,resist,10,3,50,10
SRS_1,1092,5,4,11,3,1,3,40,resist,2,414,6,15392,2,3025,34,0062.jpg,0062.jpg,2,TrialProc,TrialList,42,resist,resist,11,3,51,11
SRS_1,1092,5,4,11,3,1,3,40,resist,4,359,4,7930,4,4396,31,0055.jpg,0055.jpg,2,TrialProc,TrialList,39,resist,resist,12,3,52,12
SRS_1,1092,5,4,11,3,1,3,40,reappraisal,2,1021,5,415,2,366,3,0009.jpg,0009.jpg,1,TrialProc,TrialList,14,reappraisal,reappraisal,13,3,53,13
SRS_1,1092,5,4,11,3,1,3,40,resist,2,519,3,268,2,248,60,0114.jpg,0114.jpg,3,TrialProc,TrialList,59,resist,resist,14,3,54,14
SRS_1,1092,5,4,11,3,1,3,40,reappraisal,7,278,6,1202,7,2121,5,0016.jpg,0016.jpg,1,TrialProc,TrialList,15,reappraisal,reappraisal,15,3,55,15
SRS_1,1092,5,4,11,3,1,3,40,reappraisal,4,844,7,344,3,337,43,0106.jpg,0106.jpg,3,TrialProc,TrialList,27,reappraisal,reappraisal,16,3,56,16
SRS_1,1092,5,4,11,3,1,3,40,reappraisal,6,403,5,490,4,1278,20,0150.jpg,0150.jpg,1,TrialProc,TrialList,8,reappraisal,reappraisal,17,3,57,17
SRS_1,1092,5,4,11,3,1,3,40,reappraisal,7,370,6,399,7,647,24,0400.jpg,0400.jpg,2,TrialProc,TrialList,5,reappraisal,reappraisal,18,3,58,18
SRS_1,1092,5,4,11,3,1,3,40,resist,6,413,5,3556,6,1093,56,0293.jpg,0293.jpg,3,TrialProc,TrialList,46,resist,resist,19,3,59,19
SRS_1,1092,5,4,11,3,1,3,40,reappraisal,4,321,5,328,3,442,45,0111.jpg,0111.jpg,3,TrialProc,TrialList,9,reappraisal,reappraisal,20,3,60,20
SRS_1,305,4,4,9,1,1,1,0,resist,3,11029,4,7756,4,1206,59,0465.jpg,0465.jpg,3,TrialProc,TrialList,34,resist,resist,1,1,1,1
SRS_1,305,4,4,9,1,1,1,0,resist,1,2325,3,9717,3,792,3,0009.jpg,0009.jpg,1,TrialProc,TrialList,49,resist,resist,2,1,2,2
SRS_1,305,4,4,9,1,1,1,0,reappraisal,2,1696,5,4751,3,2256,6,0027.jpg,0027.jpg,1,TrialProc,TrialList,22,reappraisal,reappraisal,3,1,3,3
SRS_1,305,4,4,9,1,1,1,0,resist,3,2758,3,5391,3,5559,27,0183.jpg,0183.jpg,2,TrialProc,TrialList,46,resist,resist,4,1,4,4
SRS_1,305,4,4,9,1,1,1,0,reappraisal,5,3377,5,4901,4,7217,24,0400.jpg,0400.jpg,2,TrialProc,TrialList,8,reappraisal,reappraisal,5,1,5,5
SRS_1,305,4,4,9,1,1,1,0,resist,3,2840,3,5852,3,7610,57,0357.jpg,0357.jpg,3,TrialProc,TrialList,37,resist,resist,6,1,6,6
SRS_1,305,4,4,9,1,1,1,0,reappraisal,2,1554,2,7605,3,6397,14,0117.jpg,0117.jpg,1,TrialProc,TrialList,27,reappraisal,reappraisal,7,1,7,7
SRS_1,305,4,4,9,1,1,1,0,resist,7,3901,3,4166,5,5431,5,0016.jpg,0016.jpg,1,TrialProc,TrialList,50,resist,resist,8,1,8,8
SRS_1,305,4,4,9,1,1,1,0,resist,6,2646,3,3304,5,4619,33,0060.jpg,0060.jpg,2,TrialProc,TrialList,52,resist,resist,9,1,9,9
SRS_1,305,4,4,9,1,1,1,0,resist,2,1242,3,6295,3,2339,11,0021.jpg,0021.jpg,1,TrialProc,TrialList,57,resist,resist,10,1,10,10
SRS_1,305,4,4,9,1,1,1,0,resist,4,1788,3,1920,3,1443,13,0094.jpg,0094.jpg,1,TrialProc,TrialList,53,resist,resist,11,1,11,11
SRS_1,305,4,4,9,1,1,1,0,reappraisal,4,2425,6,4369,5,4250,48,0166.jpg,0166.jpg,3,TrialProc,TrialList,16,reappraisal,reappraisal,12,1,12,12
SRS_1,305,4,4,9,1,1,1,0,resist,2,1504,3,3750,3,8360,35,0074.jpg,0074.jpg,2,TrialProc,TrialList,44,resist,resist,13,1,13,13
SRS_1,305,4,4,9,1,1,1,0,reappraisal,6,1026,6,7659,5,2969,45,0111.jpg,0111.jpg,3,TrialProc,TrialList,20,reappraisal,reappraisal,14,1,14,14
SRS_1,305,4,4,9,1,1,1,0,reappraisal,6,1418,6,1728,5,2290,1,0006.jpg,0006.jpg,1,TrialProc,TrialList,21,reappraisal,reappraisal,15,1,15,15
SRS_1,305,4,4,9,1,1,1,0,resist,2,646,3,3629,3,956,43,0106.jpg,0106.jpg,3,TrialProc,TrialList,32,resist,resist,16,1,16,16
SRS_1,305,4,4,9,1,1,1,0,reappraisal,5,1181,6,5153,5,2002,54,0173.jpg,0173.jpg,3,TrialProc,TrialList,28,reappraisal,reappraisal,17,1,17,17
SRS_1,305,4,4,9,1,1,1,0,reappraisal,3,362,6,2575,3,2296,30,0049.jpg,0049.jpg,2,TrialProc,TrialList,29,reappraisal,reappraisal,18,1,18,18
SRS_1,305,4,4,9,1,1,1,0,resist,2,459,2,4614,2,501,19,0148.jpg,0148.jpg,1,TrialProc,TrialList,33,resist,resist,19,1,19,19
SRS_1,305,4,4,9,1,1,1,0,reappraisal,5,449,6,1166,5,2495,46,0120.jpg,0120.jpg,3,TrialProc,TrialList,23,reappraisal,reappraisal,20,1,20,20
SRS_1,305,4,4,10,2,1,2,20,reappraisal,5,1642,6,2661,5,1282,60,0114.jpg,0114.jpg,3,TrialProc,TrialList,14,reappraisal,reappraisal,1,2,21,1
SRS_1,305,4,4,10,2,1,2,20,reappraisal,5,391,6,482,5,686,10,0048.jpg,0048.jpg,1,TrialProc,TrialList,9,reappraisal,reappraisal,2,2,22,2
SRS_1,305,4,4,10,2,1,2,20,resist,3,682,3,2834,3,2657,17,0128.jpg,0128.jpg,1,TrialProc,TrialList,43,resist,resist,3,2,23,3
SRS_1,305,4,4,10,2,1,2,20,reappraisal,2,1238,5,2424,3,5391,22,0155.jpg,0155.jpg,2,TrialProc,TrialList,26,reappraisal,reappraisal,4,2,24,4
SRS_1,305,4,4,10,2,1,2,20,reappraisal,5,263,5,2509,4,2752,15,0121.jpg,0121.jpg,1,TrialProc,TrialList,7,reappraisal,reappraisal,5,2,25,5
SRS_1,305,4,4,10,2,1,2,20,resist,5,1610,3,5797,3,2149,47,0132.jpg,0132.jpg,3,TrialProc,TrialList,51,resist,resist,6,2,26,6
SRS_1,305,4,4,10,2,1,2,20,reappraisal,4,239,6,2862,3,3203,50,0331.jpg,0331.jpg,3,TrialProc,TrialList,12,reappraisal,reappraisal,7,2,27,7
SRS_1,305,4,4,10,2,1,2,20,reappraisal,6,1099,6,3385,5,6785,49,0292.jpg,0292.jpg,3,TrialProc,TrialList,17,reappraisal,reappraisal,8,2,28,8
SRS_1,305,4,4,10,2,1,2,20,resist,6,994,3,3291,3,5191,52,0164.jpg,0164.jpg,3,TrialProc,TrialList,48,resist,resist,9,2,29,9
SRS_1,305,4,4,10,2,1,2,20,resist,7,376,3,4643,4,4361,51,0163.jpg,0163.jpg,3,TrialProc,TrialList,42,resist,resist,10,2,30,10
SRS_1,305,4,4,10,2,1,2,20,reappraisal,5,1010,6,6037,4,4484,34,0062.jpg,0062.jpg,2,TrialProc,TrialList,24,reappraisal,reappraisal,11,2,31,11
SRS_1,305,4,4,10,2,1,2,20,resist,2,225,2,634,2,5928,18,0138.jpg,0138.jpg,1,TrialProc,TrialList,31,resist,resist,12,2,32,12
SRS_1,305,4,4,10,2,1,2,20,resist,6,459,2,3439,3,2846,38,0083.jpg,0083.jpg,2,TrialProc,TrialList,41,resist,resist,13,2,33,13
SRS_1,305,4,4,10,2,1,2,20,resist,3,268,3,5924,2,3415,4,0013.jpg,0013.jpg,1,TrialProc,TrialList,35,resist,resist,14,2,34,14
SRS_1,305,4,4,10,2,1,2,20,reappraisal,7,471,6,579,5,5900,53,0165.jpg,0165.jpg,3,TrialProc,TrialList,13,reappraisal,reappraisal,15,2,35,15
SRS_1,305,4,4,10,2,1,2,20,resist,1,288,2,2052,2,1082,16,0124.jpg,0124.jpg,1,TrialProc,TrialList,58,resist,resist,16,2,36,16
SRS_1,305,4,4,10,2,1,2,20,reappraisal,4,414,5,6756,4,2142,32,0056.jpg,0056.jpg,2,TrialProc,TrialList,15,reappraisal,reappraisal,17,2,37,17
SRS_1,305,4,4,10,2,1,2,20,reappraisal,3,631,5,1243,3,2545,9,0043.jpg,0043.jpg,1,TrialProc,TrialList,3,reappraisal,reappraisal,18,2,38,18
SRS_1,305,4,4,10,2,1,2,20,resist,4,282,3,2867,3,9168,41,0097.jpg,0097.jpg,3,TrialProc,TrialList,56,resist,resist,19,2,39,19
SRS_1,305,4,4,10,2,1,2,20,resist,7,346,3,5683,3,3320,29,0189.jpg,0189.jpg,2,TrialProc,TrialList,45,resist,resist,20,2,40,20
SRS_1,305,4,4,11,3,1,3,40,reappraisal,2,459,4,656,4,11877,21,0193.jpg,0193.jpg,2,TrialProc,TrialList,25,reappraisal,reappraisal,1,3,41,1
SRS_1,305,4,4,11,3,1,3,40,reappraisal,4,459,6,9658,3,2184,20,0150.jpg,0150.jpg,1,TrialProc,TrialList,18,reappraisal,reappraisal,2,3,42,2
SRS_1,305,4,4,11,3,1,3,40,reappraisal,3,1064,5,6017,2,3056,12,0063.jpg,0063.jpg,1,TrialProc,TrialList,6,reappraisal,reappraisal,3,3,43,3
SRS_1,305,4,4,11,3,1,3,40,reappraisal,1,414,5,1885,4,3442,26,0180.jpg,0180.jpg,2,TrialProc,TrialList,1,reappraisal,reappraisal,4,3,44,4
SRS_1,305,4,4,11,3,1,3,40,reappraisal,6,264,6,3088,4,3661,56,0293.jpg,0293.jpg,3,TrialProc,TrialList,11,reappraisal,reappraisal,5,3,45,5
SRS_1,305,4,4,11,3,1,3,40,resist,3,210,3,1692,4,2080,39,0089.jpg,0089.jpg,2,TrialProc,TrialList,39,resist,resist,6,3,46,6
SRS_1,305,4,4,11,3,1,3,40,reappraisal,3,388,6,2061,4,2842,7,0036.jpg,0036.jpg,1,TrialProc,TrialList,19,reappraisal,reappraisal,7,3,47,7
SRS_1,305,4,4,11,3,1,3,40,reappraisal,2,287,5,13169,3,1995,25,0244.jpg,0244.jpg,2,TrialProc,TrialList,2,reappraisal,reappraisal,8,3,48,8
SRS_1,305,4,4,11,3,1,3,40,reappraisal,6,459,6,2651,5,1713,8,0042.jpg,0042.jpg,1,TrialProc,TrialList,4,reappraisal,reappraisal,9,3,49,9
SRS_1,305,4,4,11,3,1,3,40,reappraisal,3,220,6,2816,4,4087,40,0090.jpg,0090.jpg,2,TrialProc,TrialList,10,reappraisal,reappraisal,10,3,50,10
SRS_1,305,4,4,11,3,1,3,40,resist,4,1203,3,4313,4,3636,42,0103.jpg,0103.jpg,3,TrialProc,TrialList,38,resist,resist,11,3,51,11
SRS_1,305,4,4,11,3,1,3,40,resist,1,282,2,2893,2,449,55,0182.jpg,0182.jpg,3,TrialProc,TrialList,54,resist,resist,12,3,52,12
SRS_1,305,4,4,11,3,1,3,40,resist,3,479,2,2608,3,1192,31,0055.jpg,0055.jpg,2,TrialProc,TrialList,60,resist,resist,13,3,53,13
SRS_1,305,4,4,11,3,1,3,40,resist,2,216,3,5594,2,2162,28,0186.jpg,0186.jpg,2,TrialProc,TrialList,59,resist,resist,14,3,54,14
SRS_1,305,4,4,11,3,1,3,40,reappraisal,4,212,6,2542,5,1752,36,0080.jpg,0080.jpg,2,TrialProc,TrialList,30,reappraisal,reappraisal,15,3,55,15
SRS_1,305,4,4,11,3,1,3,40,resist,5,250,3,2389,5,1909,37,0082.jpg,0082.jpg,2,TrialProc,TrialList,36,resist,resist,16,3,56,16
SRS_1,305,4,4,11,3,1,3,40,resist,4,264,3,1844,3,1786,2,0007.jpg,0007.jpg,1,TrialProc,TrialList,47,resist,resist,17,3,57,17
SRS_1,305,4,4,11,3,1,3,40,resist,2,602,2,2417,2,4208,23,0157.jpg,0157.jpg,2,TrialProc,TrialList,40,resist,resist,18,3,58,18
SRS_1,305,4,4,11,3,1,3,40,resist,3,80,2,2938,3,1908,44,0514.jpg,0514.jpg,3,TrialProc,TrialList,55,resist,resist,19,3,59,19
SRS_1,305,4,4,11,3,1,3,40,reappraisal,6,383,6,1642,5,504,58,0441.jpg,0441.jpg,3,TrialProc,TrialList,5,reappraisal,reappraisal,20,3,60,20
SRS_1,508,5,2,9,1,1,1,0,reappraisal,3,3482,5,5461,4,5306,26,0180.jpg,0180.jpg,2,TrialProc,TrialList,18,reappraisal,reappraisal,1,1,1,1
SRS_1,508,5,2,9,1,1,1,0,reappraisal,7,2862,7,2803,3,3098,49,0292.jpg,0292.jpg,3,TrialProc,TrialList,17,reappraisal,reappraisal,2,1,2,2
SRS_1,508,5,2,9,1,1,1,0,reappraisal,6,3374,6,2683,4,3719,20,0150.jpg,0150.jpg,1,TrialProc,TrialList,23,reappraisal,reappraisal,3,1,3,3
SRS_1,508,5,2,9,1,1,1,0,resist,4,7819,6,4787,3,3724,56,0293.jpg,0293.jpg,3,TrialProc,TrialList,48,resist,resist,4,1,4,4
SRS_1,508,5,2,9,1,1,1,0,reappraisal,6,3486,6,7079,5,4948,39,0089.jpg,0089.jpg,2,TrialProc,TrialList,20,reappraisal,reappraisal,5,1,5,5
SRS_1,508,5,2,9,1,1,1,0,reappraisal,6,3894,5,4031,4,5325,38,0083.jpg,0083.jpg,2,TrialProc,TrialList,16,reappraisal,reappraisal,6,1,6,6
SRS_1,508,5,2,9,1,1,1,0,resist,5,2832,4,4980,6,8613,60,0114.jpg,0114.jpg,3,TrialProc,TrialList,45,resist,resist,7,1,7,7
SRS_1,508,5,2,9,1,1,1,0,resist,2,2444,6,4488,5,2685,23,0157.jpg,0157.jpg,2,TrialProc,TrialList,49,resist,resist,8,1,8,8
SRS_1,508,5,2,9,1,1,1,0,resist,5,3625,5,2360,4,3641,58,0441.jpg,0441.jpg,3,TrialProc,TrialList,32,resist,resist,9,1,9,9
SRS_1,508,5,2,9,1,1,1,0,reappraisal,6,4535,5,2169,4,2962,3,0009.jpg,0009.jpg,1,TrialProc,TrialList,11,reappraisal,reappraisal,10,1,10,10
SRS_1,508,5,2,9,1,1,1,0,resist,7,1307,5,2700,6,2655,42,0103.jpg,0103.jpg,3,TrialProc,TrialList,35,resist,resist,11,1,11,11
SRS_1,508,5,2,9,1,1,1,0,resist,2,1685,5,4171,6,6716,13,0094.jpg,0094.jpg,1,TrialProc,TrialList,53,resist,resist,12,1,12,12
SRS_1,508,5,2,9,1,1,1,0,reappraisal,2,3408,7,4746,5,2275,24,0400.jpg,0400.jpg,2,TrialProc,TrialList,14,reappraisal,reappraisal,13,1,13,13
SRS_1,508,5,2,9,1,1,1,0,resist,6,5312,5,4551,4,7521,1,0006.jpg,0006.jpg,1,TrialProc,TrialList,39,resist,resist,14,1,14,14
SRS_1,508,5,2,9,1,1,1,0,resist,4,7828,6,5512,5,2251,50,0331.jpg,0331.jpg,3,TrialProc,TrialList,42,resist,resist,15,1,15,15
SRS_1,508,5,2,9,1,1,1,0,reappraisal,3,3041,4,3323,5,4270,53,0165.jpg,0165.jpg,3,TrialProc,TrialList,21,reappraisal,reappraisal,16,1,16,16
SRS_1,508,5,2,9,1,1,1,0,reappraisal,2,3075,4,3929,5,5084,30,0049.jpg,0049.jpg,2,TrialProc,TrialList,25,reappraisal,reappraisal,17,1,17,17
SRS_1,508,5,2,9,1,1,1,0,resist,6,3832,5,4935,5,2081,4,0013.jpg,0013.jpg,1,TrialProc,TrialList,50,resist,resist,18,1,18,18
SRS_1,508,5,2,9,1,1,1,0,reappraisal,4,1830,4,2702,4,1817,45,0111.jpg,0111.jpg,3,TrialProc,TrialList,8,reappraisal,reappraisal,19,1,19,19
SRS_1,508,5,2,9,1,1,1,0,resist,7,2185,5,2906,6,5470,51,0163.jpg,0163.jpg,3,TrialProc,TrialList,47,resist,resist,20,1,20,20
SRS_1,508,5,2,10,2,1,2,20,reappraisal,6,1632,6,2654,5,7323,36,0080.jpg,0080.jpg,2,TrialProc,TrialList,4,reappraisal,reappraisal,1,2,21,1
SRS_1,508,5,2,10,2,1,2,20,resist,5,4614,6,3388,5,4285,41,0097.jpg,0097.jpg,3,TrialProc,TrialList,57,resist,resist,2,2,22,2
SRS_1,508,5,2,10,2,1,2,20,resist,7,1129,5,2290,6,1814,54,0173.jpg,0173.jpg,3,TrialProc,TrialList,51,resist,resist,3,2,23,3
SRS_1,508,5,2,10,2,1,2,20,resist,7,1253,7,2192,6,4248,18,0138.jpg,0138.jpg,1,TrialProc,TrialList,31,resist,resist,4,2,24,4
SRS_1,508,5,2,10,2,1,2,20,resist,7,1710,7,2336,6,1482,8,0042.jpg,0042.jpg,1,TrialProc,TrialList,33,resist,resist,5,2,25,5
SRS_1,508,5,2,10,2,1,2,20,resist,6,2102,7,2004,5,1043,33,0060.jpg,0060.jpg,2,TrialProc,TrialList,54,resist,resist,6,2,26,6
SRS_1,508,5,2,10,2,1,2,20,reappraisal,2,1601,2,1266,1,3863,17,0128.jpg,0128.jpg,1,TrialProc,TrialList,22,reappraisal,reappraisal,7,2,27,7
SRS_1,508,5,2,10,2,1,2,20,resist,5,1989,7,4633,6,2255,10,0048.jpg,0048.jpg,1,TrialProc,TrialList,40,resist,resist,8,2,28,8
SRS_1,508,5,2,10,2,1,2,20,resist,5,6309,5,3919,6,8546,14,0117.jpg,0117.jpg,1,TrialProc,TrialList,43,resist,resist,9,2,29,9
SRS_1,508,5,2,10,2,1,2,20,reappraisal,6,3380,7,2260,5,1625,7,0036.jpg,0036.jpg,1,TrialProc,TrialList,24,reappraisal,reappraisal,10,2,30,10
SRS_1,508,5,2,10,2,1,2,20,reappraisal,5,1150,5,3039,5,5316,9,0043.jpg,0043.jpg,1,TrialProc,TrialList,9,reappraisal,reappraisal,11,2,31,11
SRS_1,508,5,2,10,2,1,2,20,reappraisal,4,7457,5,4516,4,2031,12,0063.jpg,0063.jpg,1,TrialProc,TrialList,1,reappraisal,reappraisal,12,2,32,12
SRS_1,508,5,2,10,2,1,2,20,reappraisal,4,4605,5,4209,4,1616,59,0465.jpg,0465.jpg,3,TrialProc,TrialList,10,reappraisal,reappraisal,13,2,33,13
SRS_1,508,5,2,10,2,1,2,20,resist,3,1647,6,1175,4,711,52,0164.jpg,0164.jpg,3,TrialProc,TrialList,59,resist,resist,14,2,34,14
SRS_1,508,5,2,10,2,1,2,20,resist,4,1123,4,1496,5,1291,57,0357.jpg,0357.jpg,3,TrialProc,TrialList,46,resist,resist,15,2,35,15
SRS_1,508,5,2,10,2,1,2,20,reappraisal,4,2535,4,1092,2,951,37,0082.jpg,0082.jpg,2,TrialProc,TrialList,28,reappraisal,reappraisal,16,2,36,16
SRS_1,508,5,2,10,2,1,2,20,reappraisal,7,1377,5,3906,6,2190,43,0106.jpg,0106.jpg,3,TrialProc,TrialList,5,reappraisal,reappraisal,17,2,37,17
SRS_1,508,5,2,10,2,1,2,20,resist,4,1870,4,2257,3,5383,47,0132.jpg,0132.jpg,3,TrialProc,TrialList,41,resist,resist,18,2,38,18
SRS_1,508,5,2,10,2,1,2,20,reappraisal,7,2511,7,3729,5,2011,29,0189.jpg,0189.jpg,2,TrialProc,TrialList,29,reappraisal,reappraisal,19,2,39,19
SRS_1,508,5,2,10,2,1,2,20,resist,2,1338,6,2863,5,580,44,0514.jpg,0514.jpg,3,TrialProc,TrialList,58,resist,resist,20,2,40,20
SRS_1,508,5,2,11,3,1,3,40,reappraisal,4,2798,4,3039,5,2014,27,0183.jpg,0183.jpg,2,TrialProc,TrialList,3,reappraisal,reappraisal,1,3,41,1
SRS_1,508,5,2,11,3,1,3,40,reappraisal,7,1517,4,2376,6,928,31,0055.jpg,0055.jpg,2,TrialProc,TrialList,27,reappraisal,reappraisal,2,3,42,2
SRS_1,508,5,2,11,3,1,3,40,resist,7,451,6,1269,5,2698,34,0062.jpg,0062.jpg,2,TrialProc,TrialList,34,resist,resist,3,3,43,3
SRS_1,508,5,2,11,3,1,3,40,reappraisal,7,790,5,2915,6,4222,55,0182.jpg,0182.jpg,3,TrialProc,TrialList,15,reappraisal,reappraisal,4,3,44,4
SRS_1,508,5,2,11,3,1,3,40,resist,6,2941,5,1849,4,2198,28,0186.jpg,0186.jpg,2,TrialProc,TrialList,37,resist,resist,5,3,45,5
SRS_1,508,5,2,11,3,1,3,40,resist,7,398,7,495,7,539,5,0016.jpg,0016.jpg,1,TrialProc,TrialList,52,resist,resist,6,3,46,6
SRS_1,508,5,2,11,3,1,3,40,reappraisal,5,500,7,315,5,710,46,0120.jpg,0120.jpg,3,TrialProc,TrialList,26,reappraisal,reappraisal,7,3,47,7
SRS_1,508,5,2,11,3,1,3,40,reappraisal,4,1857,6,1777,5,1633,15,0121.jpg,0121.jpg,1,TrialProc,TrialList,6,reappraisal,reappraisal,8,3,48,8
SRS_1,508,5,2,11,3,1,3,40,reappraisal,3,1871,6,1840,5,527,16,0124.jpg,0124.jpg,1,TrialProc,TrialList,19,reappraisal,reappraisal,9,3,49,9
SRS_1,508,5,2,11,3,1,3,40,resist,4,1577,3,1532,3,1950,19,0148.jpg,0148.jpg,1,TrialProc,TrialList,38,resist,resist,10,3,50,10
SRS_1,508,5,2,11,3,1,3,40,reappraisal,4,7280,4,2446,5,2828,21,0193.jpg,0193.jpg,2,TrialProc,TrialList,30,reappraisal,reappraisal,11,3,51,11
SRS_1,508,5,2,11,3,1,3,40,resist,4,2739,3,2710,4,1945,48,0166.jpg,0166.jpg,3,TrialProc,TrialList,60,resist,resist,12,3,52,12
SRS_1,508,5,2,11,3,1,3,40,resist,6,1722,4,1005,5,317,25,0244.jpg,0244.jpg,2,TrialProc,TrialList,44,resist,resist,13,3,53,13
SRS_1,508,5,2,11,3,1,3,40,reappraisal,4,456,3,1586,4,682,22,0155.jpg,0155.jpg,2,TrialProc,TrialList,13,reappraisal,reappraisal,14,3,54,14
SRS_1,508,5,2,11,3,1,3,40,resist,6,2558,6,1203,5,251,2,0007.jpg,0007.jpg,1,TrialProc,TrialList,56,resist,resist,15,3,55,15
SRS_1,508,5,2,11,3,1,3,40,reappraisal,5,1144,4,1243,5,1600,40,0090.jpg,0090.jpg,2,TrialProc,TrialList,12,reappraisal,reappraisal,16,3,56,16
SRS_1,508,5,2,11,3,1,3,40,resist,5,2472,3,1720,4,1851,35,0074.jpg,0074.jpg,2,TrialProc,TrialList,55,resist,resist,17,3,57,17
SRS_1,508,5,2,11,3,1,3,40,reappraisal,5,1985,4,2138,5,1964,11,0021.jpg,0021.jpg,1,TrialProc,TrialList,7,reappraisal,reappraisal,18,3,58,18
SRS_1,508,5,2,11,3,1,3,40,resist,4,318,6,394,5,698,6,0027.jpg,0027.jpg,1,TrialProc,TrialList,36,resist,resist,19,3,59,19
SRS_1,508,5,2,11,3,1,3,40,reappraisal,5,454,4,1741,5,2383,32,0056.jpg,0056.jpg,2,TrialProc,TrialList,2,reappraisal,reappraisal,20,3,60,20
SRS_1,602,7,4,9,1,1,1,0,reappraisal,1,2208,6,5629,5,4435,55,0182.jpg,0182.jpg,3,TrialProc,TrialList,27,reappraisal,reappraisal,1,1,1,1
SRS_1,602,7,4,9,1,1,1,0,resist,4,1498,3,4815,6,5806,19,0148.jpg,0148.jpg,1,TrialProc,TrialList,40,resist,resist,2,1,2,2
SRS_1,602,7,4,9,1,1,1,0,resist,1,1934,2,6737,5,5915,49,0292.jpg,0292.jpg,3,TrialProc,TrialList,53,resist,resist,3,1,3,3
SRS_1,602,7,4,9,1,1,1,0,resist,6,3407,3,5334,7,4945,4,0013.jpg,0013.jpg,1,TrialProc,TrialList,34,resist,resist,4,1,4,4
SRS_1,602,7,4,9,1,1,1,0,resist,2,1875,3,3415,6,3614,14,0117.jpg,0117.jpg,1,TrialProc,TrialList,60,resist,resist,5,1,5,5
SRS_1,602,7,4,9,1,1,1,0,reappraisal,7,2621,7,2595,3,4394,42,0103.jpg,0103.jpg,3,TrialProc,TrialList,7,reappraisal,reappraisal,6,1,6,6
SRS_1,602,7,4,9,1,1,1,0,reappraisal,3,3219,6,3177,2,2553,20,0150.jpg,0150.jpg,1,TrialProc,TrialList,20,reappraisal,reappraisal,7,1,7,7
SRS_1,602,7,4,9,1,1,1,0,resist,4,2843,2,6085,5,2137,39,0089.jpg,0089.jpg,2,TrialProc,TrialList,50,resist,resist,8,1,8,8
SRS_1,602,7,4,9,1,1,1,0,reappraisal,3,2643,7,2468,3,3361,45,0111.jpg,0111.jpg,3,TrialProc,TrialList,11,reappraisal,reappraisal,9,1,9,9
SRS_1,602,7,4,9,1,1,1,0,reappraisal,7,1843,6,8079,4,5148,58,0441.jpg,0441.jpg,3,TrialProc,TrialList,30,reappraisal,reappraisal,10,1,10,10
SRS_1,602,7,4,9,1,1,1,0,resist,7,1470,1,6257,5,4295,16,0124.jpg,0124.jpg,1,TrialProc,TrialList,49,resist,resist,11,1,11,11
SRS_1,602,7,4,9,1,1,1,0,resist,4,4331,2,8023,5,2215,47,0132.jpg,0132.jpg,3,TrialProc,TrialList,42,resist,resist,12,1,12,12
SRS_1,602,7,4,9,1,1,1,0,resist,6,1830,2,7800,5,2928,32,0056.jpg,0056.jpg,2,TrialProc,TrialList,33,resist,resist,13,1,13,13
SRS_1,602,7,4,9,1,1,1,0,reappraisal,7,1730,4,5138,2,2685,17,0128.jpg,0128.jpg,1,TrialProc,TrialList,6,reappraisal,reappraisal,14,1,14,14
SRS_1,602,7,4,9,1,1,1,0,resist,6,2737,1,4226,6,4264,7,0036.jpg,0036.jpg,1,TrialProc,TrialList,52,resist,resist,15,1,15,15
SRS_1,602,7,4,9,1,1,1,0,resist,3,3846,2,2778,5,3354,44,0514.jpg,0514.jpg,3,TrialProc,TrialList,54,resist,resist,16,1,16,16
SRS_1,602,7,4,9,1,1,1,0,resist,6,2331,2,3183,5,4856,56,0293.jpg,0293.jpg,3,TrialProc,TrialList,46,resist,resist,17,1,17,17
SRS_1,602,7,4,9,1,1,1,0,reappraisal,7,1237,7,4076,1,2856,40,0090.jpg,0090.jpg,2,TrialProc,TrialList,8,reappraisal,reappraisal,18,1,18,18
SRS_1,602,7,4,9,1,1,1,0,reappraisal,7,1286,6,5164,3,2845,51,0163.jpg,0163.jpg,3,TrialProc,TrialList,1,reappraisal,reappraisal,19,1,19,19
SRS_1,602,7,4,9,1,1,1,0,reappraisal,7,1963,5,5485,4,4497,11,0021.jpg,0021.jpg,1,TrialProc,TrialList,16,reappraisal,reappraisal,20,1,20,20
SRS_1,602,7,4,10,2,1,2,20,reappraisal,5,5539,5,3731,2,4757,22,0155.jpg,0155.jpg,2,TrialProc,TrialList,13,reappraisal,reappraisal,1,2,21,1
SRS_1,602,7,4,10,2,1,2,20,reappraisal,6,2375,5,7724,3,9623,31,0055.jpg,0055.jpg,2,TrialProc,TrialList,18,reappraisal,reappraisal,2,2,22,2
SRS_1,602,7,4,10,2,1,2,20,resist,7,2622,2,2915,6,4326,48,0166.jpg,0166.jpg,3,TrialProc,TrialList,57,resist,resist,3,2,23,3
SRS_1,602,7,4,10,2,1,2,20,reappraisal,7,3153,5,4964,4,2493,23,0157.jpg,0157.jpg,2,TrialProc,TrialList,24,reappraisal,reappraisal,4,2,24,4
SRS_1,602,7,4,10,2,1,2,20,reappraisal,6,2113,6,3905,5,3421,6,0027.jpg,0027.jpg,1,TrialProc,TrialList,4,reappraisal,reappraisal,5,2,25,5
SRS_1,602,7,4,10,2,1,2,20,reappraisal,6,3892,5,7672,4,7757,52,0164.jpg,0164.jpg,3,TrialProc,TrialList,12,reappraisal,reappraisal,6,2,26,6
SRS_1,602,7,4,10,2,1,2,20,resist,7,1191,1,2853,5,2083,54,0173.jpg,0173.jpg,3,TrialProc,TrialList,32,resist,resist,7,2,27,7
SRS_1,602,7,4,10,2,1,2,20,resist,5,3231,2,1713,6,4436,57,0357.jpg,0357.jpg,3,TrialProc,TrialList,48,resist,resist,8,2,28,8
SRS_1,602,7,4,10,2,1,2,20,resist,2,2506,5,7862,5,5012,28,0186.jpg,0186.jpg,2,TrialProc,TrialList,41,resist,resist,9,2,29,9
SRS_1,602,7,4,10,2,1,2,20,reappraisal,7,1283,6,6268,4,2961,2,0007.jpg,0007.jpg,1,TrialProc,TrialList,19,reappraisal,reappraisal,10,2,30,10
SRS_1,602,7,4,10,2,1,2,20,resist,7,1578,1,2273,4,2430,13,0094.jpg,0094.jpg,1,TrialProc,TrialList,45,resist,resist,11,2,31,11
SRS_1,602,7,4,10,2,1,2,20,reappraisal,7,1108,6,5635,3,1978,10,0048.jpg,0048.jpg,1,TrialProc,TrialList,5,reappraisal,reappraisal,12,2,32,12
SRS_1,602,7,4,10,2,1,2,20,reappraisal,5,3482,5,3553,4,2251,1,0006.jpg,0006.jpg,1,TrialProc,TrialList,14,reappraisal,reappraisal,13,2,33,13
SRS_1,602,7,4,10,2,1,2,20,resist,1,1601,1,2549,1,1742,27,0183.jpg,0183.jpg,2,TrialProc,TrialList,56,resist,resist,14,2,34,14
SRS_1,602,7,4,10,2,1,2,20,reappraisal,7,1152,5,4774,5,1919,59,0465.jpg,0465.jpg,3,TrialProc,TrialList,26,reappraisal,reappraisal,15,2,35,15
SRS_1,602,7,4,10,2,1,2,20,reappraisal,5,2282,7,1705,1,2371,50,0331.jpg,0331.jpg,3,TrialProc,TrialList,22,reappraisal,reappraisal,16,2,36,16
SRS_1,602,7,4,10,2,1,2,20,resist,6,2709,1,3428,5,2713,35,0074.jpg,0074.jpg,2,TrialProc,TrialList,47,resist,resist,17,2,37,17
SRS_1,602,7,4,10,2,1,2,20,reappraisal,2,1742,5,2946,1,2325,34,0062.jpg,0062.jpg,2,TrialProc,TrialList,29,reappraisal,reappraisal,18,2,38,18
SRS_1,602,7,4,10,2,1,2,20,resist,5,2535,2,2517,5,4895,37,0082.jpg,0082.jpg,2,TrialProc,TrialList,58,resist,resist,19,2,39,19
SRS_1,602,7,4,10,2,1,2,20,resist,7,1148,1,4736,6,2114,5,0016.jpg,0016.jpg,1,TrialProc,TrialList,38,resist,resist,20,2,40,20
SRS_1,602,7,4,11,3,1,3,40,reappraisal,5,3166,6,2582,3,2006,60,0114.jpg,0114.jpg,3,TrialProc,TrialList,9,reappraisal,reappraisal,1,3,41,1
SRS_1,602,7,4,11,3,1,3,40,reappraisal,6,3981,6,3345,2,2739,30,0049.jpg,0049.jpg,2,TrialProc,TrialList,2,reappraisal,reappraisal,2,3,42,2
SRS_1,602,7,4,11,3,1,3,40,reappraisal,4,1877,6,4113,2,2124,26,0180.jpg,0180.jpg,2,TrialProc,TrialList,10,reappraisal,reappraisal,3,3,43,3
SRS_1,602,7,4,11,3,1,3,40,reappraisal,7,1887,7,1576,2,2056,41,0097.jpg,0097.jpg,3,TrialProc,TrialList,3,reappraisal,reappraisal,4,3,44,4
SRS_1,602,7,4,11,3,1,3,40,reappraisal,5,3053,6,6283,3,3568,46,0120.jpg,0120.jpg,3,TrialProc,TrialList,15,reappraisal,reappraisal,5,3,45,5
SRS_1,602,7,4,11,3,1,3,40,reappraisal,1,1513,5,4055,1,1861,21,0193.jpg,0193.jpg,2,TrialProc,TrialList,23,reappraisal,reappraisal,6,3,46,6
SRS_1,602,7,4,11,3,1,3,40,resist,2,1874,1,2124,5,6095,12,0063.jpg,0063.jpg,1,TrialProc,TrialList,37,resist,resist,7,3,47,7
SRS_1,602,7,4,11,3,1,3,40,reappraisal,7,1171,5,1884,2,2417,53,0165.jpg,0165.jpg,3,TrialProc,TrialList,21,reappraisal,reappraisal,8,3,48,8
SRS_1,602,7,4,11,3,1,3,40,resist,7,1392,2,5280,7,7468,38,0083.jpg,0083.jpg,2,TrialProc,TrialList,55,resist,resist,9,3,49,9
SRS_1,602,7,4,11,3,1,3,40,reappraisal,7,3674,5,2284,5,4937,36,0080.jpg,0080.jpg,2,TrialProc,TrialList,17,reappraisal,reappraisal,10,3,50,10
SRS_1,602,7,4,11,3,1,3,40,resist,7,1083,1,1433,6,1903,43,0106.jpg,0106.jpg,3,TrialProc,TrialList,44,resist,resist,11,3,51,11
SRS_1,602,7,4,11,3,1,3,40,resist,3,5475,1,1779,6,2356,3,0009.jpg,0009.jpg,1,TrialProc,TrialList,43,resist,resist,12,3,52,12
SRS_1,602,7,4,11,3,1,3,40,resist,1,909,1,2322,2,3901,25,0244.jpg,0244.jpg,2,TrialProc,TrialList,51,resist,resist,13,3,53,13
SRS_1,602,7,4,11,3,1,3,40,resist,7,1225,1,2735,7,2249,18,0138.jpg,0138.jpg,1,TrialProc,TrialList,31,resist,resist,14,3,54,14
SRS_1,602,7,4,11,3,1,3,40,resist,3,2471,1,5742,4,8471,8,0042.jpg,0042.jpg,1,TrialProc,TrialList,35,resist,resist,15,3,55,15
SRS_1,602,7,4,11,3,1,3,40,resist,3,4493,1,1962,6,2275,9,0043.jpg,0043.jpg,1,TrialProc,TrialList,36,resist,resist,16,3,56,16
SRS_1,602,7,4,11,3,1,3,40,reappraisal,7,1928,5,3602,6,4609,24,0400.jpg,0400.jpg,2,TrialProc,TrialList,28,reappraisal,reappraisal,17,3,57,17
SRS_1,602,7,4,11,3,1,3,40,resist,1,1873,1,4144,4,4042,15,0121.jpg,0121.jpg,1,TrialProc,TrialList,39,resist,resist,18,3,58,18
SRS_1,602,7,4,11,3,1,3,40,reappraisal,6,2784,5,3813,1,2653,29,0189.jpg,0189.jpg,2,TrialProc,TrialList,25,reappraisal,reappraisal,19,3,59,19
SRS_1,602,7,4,11,3,1,3,40,resist,7,1186,1,1502,6,2378,33,0060.jpg,0060.jpg,2,TrialProc,TrialList,59,resist,resist,20,3,60,20
SRS_1,609,5,2,9,1,1,1,0,resist,5,1436,4,5274,5,4863,60,0114.jpg,0114.jpg,3,TrialProc,TrialList,59,resist,resist,1,1,1,1
SRS_1,609,5,2,9,1,1,1,0,reappraisal,6,1364,6,1319,5,3361,57,0357.jpg,0357.jpg,3,TrialProc,TrialList,21,reappraisal,reappraisal,2,1,2,2
SRS_1,609,5,2,9,1,1,1,0,reappraisal,5,667,4,4819,3,4426,50,0331.jpg,0331.jpg,3,TrialProc,TrialList,27,reappraisal,reappraisal,3,1,3,3
SRS_1,609,5,2,9,1,1,1,0,resist,1,1968,6,1885,3,473,7,0036.jpg,0036.jpg,1,TrialProc,TrialList,31,resist,resist,4,1,4,4
SRS_1,609,5,2,9,1,1,1,0,resist,4,1990,4,4295,2,627,38,0083.jpg,0083.jpg,2,TrialProc,TrialList,39,resist,resist,5,1,5,5
SRS_1,609,5,2,9,1,1,1,0,resist,3,1106,2,5331,2,4190,36,0080.jpg,0080.jpg,2,TrialProc,TrialList,44,resist,resist,6,1,6,6
SRS_1,609,5,2,9,1,1,1,0,resist,5,2334,3,3954,5,1948,17,0128.jpg,0128.jpg,1,TrialProc,TrialList,45,resist,resist,7,1,7,7
SRS_1,609,5,2,9,1,1,1,0,reappraisal,4,326,5,1492,4,1840,59,0465.jpg,0465.jpg,3,TrialProc,TrialList,26,reappraisal,reappraisal,8,1,8,8
SRS_1,609,5,2,9,1,1,1,0,reappraisal,3,1638,5,3013,2,1204,29,0189.jpg,0189.jpg,2,TrialProc,TrialList,2,reappraisal,reappraisal,9,1,9,9
SRS_1,609,5,2,9,1,1,1,0,reappraisal,3,1435,4,1953,4,691,54,0173.jpg,0173.jpg,3,TrialProc,TrialList,3,reappraisal,reappraisal,10,1,10,10
SRS_1,609,5,2,9,1,1,1,0,reappraisal,2,1919,5,2592,2,607,40,0090.jpg,0090.jpg,2,TrialProc,TrialList,13,reappraisal,reappraisal,11,1,11,11
SRS_1,609,5,2,9,1,1,1,0,reappraisal,2,847,1,842,5,752,48,0166.jpg,0166.jpg,3,TrialProc,TrialList,5,reappraisal,reappraisal,12,1,12,12
SRS_1,609,5,2,9,1,1,1,0,resist,2,1274,5,3969,4,714,34,0062.jpg,0062.jpg,2,TrialProc,TrialList,57,resist,resist,13,1,13,13
SRS_1,609,5,2,9,1,1,1,0,reappraisal,3,789,2,2432,5,623,18,0138.jpg,0138.jpg,1,TrialProc,TrialList,30,reappraisal,reappraisal,14,1,14,14
SRS_1,609,5,2,9,1,1,1,0,resist,4,1573,5,6595,5,1347,45,0111.jpg,0111.jpg,3,TrialProc,TrialList,43,resist,resist,15,1,15,15
SRS_1,609,5,2,9,1,1,1,0,reappraisal,2,1357,6,700,3,1384,8,0042.jpg,0042.jpg,1,TrialProc,TrialList,20,reappraisal,reappraisal,16,1,16,16
SRS_1,609,5,2,9,1,1,1,0,resist,6,976,4,3445,5,2027,35,0074.jpg,0074.jpg,2,TrialProc,TrialList,60,resist,resist,17,1,17,17
SRS_1,609,5,2,9,1,1,1,0,reappraisal,6,2569,5,2625,6,1544,13,0094.jpg,0094.jpg,1,TrialProc,TrialList,9,reappraisal,reappraisal,18,1,18,18
SRS_1,609,5,2,9,1,1,1,0,resist,6,314,1,2961,6,490,39,0089.jpg,0089.jpg,2,TrialProc,TrialList,36,resist,resist,19,1,19,19
SRS_1,609,5,2,9,1,1,1,0,reappraisal,3,2182,5,1712,2,771,21,0193.jpg,0193.jpg,2,TrialProc,TrialList,29,reappraisal,reappraisal,20,1,20,20
SRS_1,609,5,2,10,2,1,2,20,resist,4,729,3,2855,5,1677,19,0148.jpg,0148.jpg,1,TrialProc,TrialList,48,resist,resist,1,2,21,1
SRS_1,609,5,2,10,2,1,2,20,reappraisal,6,729,6,4832,6,1142,46,0120.jpg,0120.jpg,3,TrialProc,TrialList,18,reappraisal,reappraisal,2,2,22,2
SRS_1,609,5,2,10,2,1,2,20,resist,5,1488,1,1141,6,711,56,0293.jpg,0293.jpg,3,TrialProc,TrialList,46,resist,resist,3,2,23,3
SRS_1,609,5,2,10,2,1,2,20,resist,2,1378,2,3126,5,712,15,0121.jpg,0121.jpg,1,TrialProc,TrialList,42,resist,resist,4,2,24,4
SRS_1,609,5,2,10,2,1,2,20,reappraisal,2,1131,3,687,4,483,12,0063.jpg,0063.jpg,1,TrialProc,TrialList,7,reappraisal,reappraisal,5,2,25,5
SRS_1,609,5,2,10,2,1,2,20,reappraisal,6,936,2,3421,6,380,4,0013.jpg,0013.jpg,1,TrialProc,TrialList,10,reappraisal,reappraisal,6,2,26,6
SRS_1,609,5,2,10,2,1,2,20,reappraisal,1,596,2,2360,3,1617,44,0514.jpg,0514.jpg,3,TrialProc,TrialList,25,reappraisal,reappraisal,7,2,27,7
SRS_1,609,5,2,10,2,1,2,20,reappraisal,1,473,5,1371,1,364,1,0006.jpg,0006.jpg,1,TrialProc,TrialList,22,reappraisal,reappraisal,8,2,28,8
SRS_1,609,5,2,10,2,1,2,20,reappraisal,7,661,1,273,6,366,5,0016.jpg,0016.jpg,1,TrialProc,TrialList,19,reappraisal,reappraisal,9,2,29,9
SRS_1,609,5,2,10,2,1,2,20,resist,7,319,1,499,6,591,23,0157.jpg,0157.jpg,2,TrialProc,TrialList,52,resist,resist,10,2,30,10
SRS_1,609,5,2,10,2,1,2,20,resist,4,1246,2,561,5,810,47,0132.jpg,0132.jpg,3,TrialProc,TrialList,51,resist,resist,11,2,31,11
SRS_1,609,5,2,10,2,1,2,20,reappraisal,6,1577,2,370,5,483,26,0180.jpg,0180.jpg,2,TrialProc,TrialList,15,reappraisal,reappraisal,12,2,32,12
SRS_1,609,5,2,10,2,1,2,20,resist,7,704,2,1066,6,319,9,0043.jpg,0043.jpg,1,TrialProc,TrialList,58,resist,resist,13,2,33,13
SRS_1,609,5,2,10,2,1,2,20,resist,3,1730,2,935,3,753,41,0097.jpg,0097.jpg,3,TrialProc,TrialList,47,resist,resist,14,2,34,14
SRS_1,609,5,2,10,2,1,2,20,reappraisal,6,1795,1,337,6,579,30,0049.jpg,0049.jpg,2,TrialProc,TrialList,16,reappraisal,reappraisal,15,2,35,15
SRS_1,609,5,2,10,2,1,2,20,resist,6,348,1,1244,7,370,10,0048.jpg,0048.jpg,1,TrialProc,TrialList,54,resist,resist,16,2,36,16
SRS_1,609,5,2,10,2,1,2,20,resist,5,899,2,518,6,297,24,0400.jpg,0400.jpg,2,TrialProc,TrialList,41,resist,resist,17,2,37,17
SRS_1,609,5,2,10,2,1,2,20,reappraisal,6,813,4,3093,5,1329,37,0082.jpg,0082.jpg,2,TrialProc,TrialList,23,reappraisal,reappraisal,18,2,38,18
SRS_1,609,5,2,10,2,1,2,20,reappraisal,3,611,5,574,2,367,49,0292.jpg,0292.jpg,3,TrialProc,TrialList,11,reappraisal,reappraisal,19,2,39,19
SRS_1,609,5,2,10,2,1,2,20,resist,5,1728,5,1365,3,502,11,0021.jpg,0021.jpg,1,TrialProc,TrialList,38,resist,resist,20,2,40,20
SRS_1,609,5,2,11,3,1,3,40,resist,2,705,2,3469,2,346,31,0055.jpg,0055.jpg,2,TrialProc,TrialList,33,resist,resist,1,3,41,1
SRS_1,609,5,2,11,3,1,3,40,resist,6,331,3,3548,2,414,53,0165.jpg,0165.jpg,3,TrialProc,TrialList,37,resist,resist,2,3,42,2
SRS_1,609,5,2,11,3,1,3,40,resist,7,1237,1,3744,5,346,3,0009.jpg,0009.jpg,1,TrialProc,TrialList,56,resist,resist,3,3,43,3
SRS_1,609,5,2,11,3,1,3,40,reappraisal,5,316,3,1856,4,1494,52,0164.jpg,0164.jpg,3,TrialProc,TrialList,4,reappraisal,reappraisal,4,3,44,4
SRS_1,609,5,2,11,3,1,3,40,resist,6,1042,2,891,5,1223,32,0056.jpg,0056.jpg,2,TrialProc,TrialList,32,resist,resist,5,3,45,5
SRS_1,609,5,2,11,3,1,3,40,resist,2,845,2,416,5,559,42,0103.jpg,0103.jpg,3,TrialProc,TrialList,53,resist,resist,6,3,46,6
SRS_1,609,5,2,11,3,1,3,40,resist,1,496,2,1602,1,2714,27,0183.jpg,0183.jpg,2,TrialProc,TrialList,55,resist,resist,7,3,47,7
SRS_1,609,5,2,11,3,1,3,40,resist,5,1605,3,1428,5,427,28,0186.jpg,0186.jpg,2,TrialProc,TrialList,40,resist,resist,8,3,48,8
SRS_1,609,5,2,11,3,1,3,40,reappraisal,7,321,2,503,6,1106,14,0117.jpg,0117.jpg,1,TrialProc,TrialList,28,reappraisal,reappraisal,9,3,49,9
SRS_1,609,5,2,11,3,1,3,40,reappraisal,7,429,3,1507,5,782,6,0027.jpg,0027.jpg,1,TrialProc,TrialList,8,reappraisal,reappraisal,10,3,50,10
SRS_1,609,5,2,11,3,1,3,40,resist,3,359,3,911,3,561,20,0150.jpg,0150.jpg,1,TrialProc,TrialList,49,resist,resist,11,3,51,11
SRS_1,609,5,2,11,3,1,3,40,reappraisal,7,450,2,1577,5,817,51,0163.jpg,0163.jpg,3,TrialProc,TrialList,14,reappraisal,reappraisal,12,3,52,12
SRS_1,609,5,2,11,3,1,3,40,resist,1,648,3,1066,4,1231,16,0124.jpg,0124.jpg,1,TrialProc,TrialList,50,resist,resist,13,3,53,13
SRS_1,609,5,2,11,3,1,3,40,reappraisal,6,710,2,2618,4,449,58,0441.jpg,0441.jpg,3,TrialProc,TrialList,12,reappraisal,reappraisal,14,3,54,14
SRS_1,609,5,2,11,3,1,3,40,reappraisal,7,407,1,532,7,1382,33,0060.jpg,0060.jpg,2,TrialProc,TrialList,17,reappraisal,reappraisal,15,3,55,15
SRS_1,609,5,2,11,3,1,3,40,reappraisal,2,950,2,2117,5,776,22,0155.jpg,0155.jpg,2,TrialProc,TrialList,6,reappraisal,reappraisal,16,3,56,16
SRS_1,609,5,2,11,3,1,3,40,resist,5,2696,2,1374,6,503,2,0007.jpg,0007.jpg,1,TrialProc,TrialList,34,resist,resist,17,3,57,17
SRS_1,609,5,2,11,3,1,3,40,reappraisal,6,354,2,1231,4,638,43,0106.jpg,0106.jpg,3,TrialProc,TrialList,24,reappraisal,reappraisal,18,3,58,18
SRS_1,609,5,2,11,3,1,3,40,resist,6,819,3,1966,6,623,55,0182.jpg,0182.jpg,3,TrialProc,TrialList,35,resist,resist,19,3,59,19
SRS_1,609,5,2,11,3,1,3,40,reappraisal,2,374,3,1311,4,1490,25,0244.jpg,0244.jpg,2,TrialProc,TrialList,1,reappraisal,reappraisal,20,3,60,20
SRS_1,629,7,6,9,1,1,1,0,resist,4,2994,4,3217,2,2608,60,0114.jpg,0114.jpg,3,TrialProc,TrialList,35,resist,resist,1,1,1,1
SRS_1,629,7,6,9,1,1,1,0,reappraisal,3,2663,7,3259,3,2512,52,0164.jpg,0164.jpg,3,TrialProc,TrialList,2,reappraisal,reappraisal,2,1,2,2
SRS_1,629,7,6,9,1,1,1,0,resist,6,1852,4,4827,5,2970,2,0007.jpg,0007.jpg,1,TrialProc,TrialList,59,resist,resist,3,1,3,3
SRS_1,629,7,6,9,1,1,1,0,reappraisal,4,2315,6,4249,4,2479,40,0090.jpg,0090.jpg,2,TrialProc,TrialList,26,reappraisal,reappraisal,4,1,4,4
SRS_1,629,7,6,9,1,1,1,0,reappraisal,7,2148,6,1988,2,1476,8,0042.jpg,0042.jpg,1,TrialProc,TrialList,21,reappraisal,reappraisal,5,1,5,5
SRS_1,629,7,6,9,1,1,1,0,resist,4,2448,6,3040,2,2566,9,0043.jpg,0043.jpg,1,TrialProc,TrialList,49,resist,resist,6,1,6,6
SRS_1,629,7,6,9,1,1,1,0,reappraisal,4,1983,7,2941,2,2447,26,0180.jpg,0180.jpg,2,TrialProc,TrialList,22,reappraisal,reappraisal,7,1,7,7
SRS_1,629,7,6,9,1,1,1,0,resist,7,2197,4,3115,4,2334,49,0292.jpg,0292.jpg,3,TrialProc,TrialList,42,resist,resist,8,1,8,8
SRS_1,629,7,6,9,1,1,1,0,resist,5,1808,3,3912,4,3083,25,0244.jpg,0244.jpg,2,TrialProc,TrialList,60,resist,resist,9,1,9,9
SRS_1,629,7,6,9,1,1,1,0,resist,3,1840,5,5479,2,5267,7,0036.jpg,0036.jpg,1,TrialProc,TrialList,56,resist,resist,10,1,10,10
SRS_1,629,7,6,9,1,1,1,0,resist,5,3609,6,4261,2,2722,22,0155.jpg,0155.jpg,2,TrialProc,TrialList,53,resist,resist,11,1,11,11
SRS_1,629,7,6,9,1,1,1,0,resist,6,1212,6,2499,2,1383,12,0063.jpg,0063.jpg,1,TrialProc,TrialList,47,resist,resist,12,1,12,12
SRS_1,629,7,6,9,1,1,1,0,resist,4,1752,4,2475,4,904,37,0082.jpg,0082.jpg,2,TrialProc,TrialList,50,resist,resist,13,1,13,13
SRS_1,629,7,6,9,1,1,1,0,resist,4,4779,6,2526,2,3912,57,0357.jpg,0357.jpg,3,TrialProc,TrialList,39,resist,resist,14,1,14,14
SRS_1,629,7,6,9,1,1,1,0,reappraisal,7,1259,7,1938,1,4165,11,0021.jpg,0021.jpg,1,TrialProc,TrialList,9,reappraisal,reappraisal,15,1,15,15
SRS_1,629,7,6,9,1,1,1,0,reappraisal,5,2534,6,3226,3,1216,4,0013.jpg,0013.jpg,1,TrialProc,TrialList,25,reappraisal,reappraisal,16,1,16,16
SRS_1,629,7,6,9,1,1,1,0,resist,3,1511,7,5837,1,2283,21,0193.jpg,0193.jpg,2,TrialProc,TrialList,41,resist,resist,17,1,17,17
SRS_1,629,7,6,9,1,1,1,0,resist,7,1488,4,4232,4,1711,44,0514.jpg,0514.jpg,3,TrialProc,TrialList,37,resist,resist,18,1,18,18
SRS_1,629,7,6,9,1,1,1,0,reappraisal,4,2338,7,2274,3,2383,36,0080.jpg,0080.jpg,2,TrialProc,TrialList,7,reappraisal,reappraisal,19,1,19,19
SRS_1,629,7,6,9,1,1,1,0,resist,4,1496,6,3405,2,1900,56,0293.jpg,0293.jpg,3,TrialProc,TrialList,43,resist,resist,20,1,20,20
SRS_1,629,7,6,10,2,1,2,20,resist,3,1662,6,3549,3,1878,58,0441.jpg,0441.jpg,3,TrialProc,TrialList,40,resist,resist,1,2,21,1
SRS_1,629,7,6,10,2,1,2,20,reappraisal,2,1403,7,1357,2,1247,29,0189.jpg,0189.jpg,2,TrialProc,TrialList,11,reappraisal,reappraisal,2,2,22,2
SRS_1,629,7,6,10,2,1,2,20,reappraisal,4,2517,7,2092,3,920,39,0089.jpg,0089.jpg,2,TrialProc,TrialList,18,reappraisal,reappraisal,3,2,23,3
SRS_1,629,7,6,10,2,1,2,20,resist,3,1787,5,2796,3,1627,54,0173.jpg,0173.jpg,3,TrialProc,TrialList,45,resist,resist,4,2,24,4
SRS_1,629,7,6,10,2,1,2,20,reappraisal,2,1746,7,3191,2,3639,16,0124.jpg,0124.jpg,1,TrialProc,TrialList,24,reappraisal,reappraisal,5,2,25,5
SRS_1,629,7,6,10,2,1,2,20,reappraisal,3,1397,7,1212,2,1106,3,0009.jpg,0009.jpg,1,TrialProc,TrialList,29,reappraisal,reappraisal,6,2,26,6
SRS_1,629,7,6,10,2,1,2,20,reappraisal,7,1350,5,2805,3,1732,45,0111.jpg,0111.jpg,3,TrialProc,TrialList,10,reappraisal,reappraisal,7,2,27,7
SRS_1,629,7,6,10,2,1,2,20,reappraisal,3,1335,6,4434,1,2600,32,0056.jpg,0056.jpg,2,TrialProc,TrialList,14,reappraisal,reappraisal,8,2,28,8
SRS_1,629,7,6,10,2,1,2,20,reappraisal,3,2776,7,4972,1,1533,51,0163.jpg,0163.jpg,3,TrialProc,TrialList,12,reappraisal,reappraisal,9,2,29,9
SRS_1,629,7,6,10,2,1,2,20,resist,4,2712,7,1929,2,3043,14,0117.jpg,0117.jpg,1,TrialProc,TrialList,58,resist,resist,10,2,30,10
SRS_1,629,7,6,10,2,1,2,20,resist,7,961,3,5044,6,2482,33,0060.jpg,0060.jpg,2,TrialProc,TrialList,52,resist,resist,11,2,31,11
SRS_1,629,7,6,10,2,1,2,20,resist,2,1503,7,4680,1,3388,15,0121.jpg,0121.jpg,1,TrialProc,TrialList,55,resist,resist,12,2,32,12
SRS_1,629,7,6,10,2,1,2,20,resist,4,940,7,2310,2,1593,42,0103.jpg,0103.jpg,3,TrialProc,TrialList,44,resist,resist,13,2,33,13
SRS_1,629,7,6,10,2,1,2,20,reappraisal,1,521,7,4407,2,1111,17,0128.jpg,0128.jpg,1,TrialProc,TrialList,4,reappraisal,reappraisal,14,2,34,14
SRS_1,629,7,6,10,2,1,2,20,reappraisal,5,2778,7,2600,1,1064,19,0148.jpg,0148.jpg,1,TrialProc,TrialList,6,reappraisal,reappraisal,15,2,35,15
SRS_1,629,7,6,10,2,1,2,20,resist,3,1773,5,3093,2,2161,35,0074.jpg,0074.jpg,2,TrialProc,TrialList,32,resist,resist,16,2,36,16
SRS_1,629,7,6,10,2,1,2,20,reappraisal,7,378,7,1349,2,2719,59,0465.jpg,0465.jpg,3,TrialProc,TrialList,13,reappraisal,reappraisal,17,2,37,17
SRS_1,629,7,6,10,2,1,2,20,resist,2,1882,5,1228,2,1427,41,0097.jpg,0097.jpg,3,TrialProc,TrialList,33,resist,resist,18,2,38,18
SRS_1,629,7,6,10,2,1,2,20,resist,5,1401,6,2120,1,1731,38,0083.jpg,0083.jpg,2,TrialProc,TrialList,48,resist,resist,19,2,39,19
SRS_1,629,7,6,10,2,1,2,20,reappraisal,5,1542,7,451,1,976,1,0006.jpg,0006.jpg,1,TrialProc,TrialList,8,reappraisal,reappraisal,20,2,40,20
SRS_1,629,7,6,11,3,1,3,40,resist,4,1598,6,1812,3,1227,13,0094.jpg,0094.jpg,1,TrialProc,TrialList,51,resist,resist,1,3,41,1
SRS_1,629,7,6,11,3,1,3,40,reappraisal,2,865,7,4199,3,2527,18,0138.jpg,0138.jpg,1,TrialProc,TrialList,16,reappraisal,reappraisal,2,3,42,2
SRS_1,629,7,6,11,3,1,3,40,reappraisal,5,1833,7,1467,1,695,10,0048.jpg,0048.jpg,1,TrialProc,TrialList,28,reappraisal,reappraisal,3,3,43,3
SRS_1,629,7,6,11,3,1,3,40,resist,5,1571,5,2026,1,2032,5,0016.jpg,0016.jpg,1,TrialProc,TrialList,46,resist,resist,4,3,44,4
SRS_1,629,7,6,11,3,1,3,40,resist,3,1231,3,4311,4,1922,34,0062.jpg,0062.jpg,2,TrialProc,TrialList,38,resist,resist,5,3,45,5
SRS_1,629,7,6,11,3,1,3,40,reappraisal,7,2149,7,413,2,972,6,0027.jpg,0027.jpg,1,TrialProc,TrialList,20,reappraisal,reappraisal,6,3,46,6
SRS_1,629,7,6,11,3,1,3,40,reappraisal,3,900,6,1489,2,862,30,0049.jpg,0049.jpg,2,TrialProc,TrialList,23,reappraisal,reappraisal,7,3,47,7
SRS_1,629,7,6,11,3,1,3,40,reappraisal,4,747,5,3926,4,2472,28,0186.jpg,0186.jpg,2,TrialProc,TrialList,17,reappraisal,reappraisal,8,3,48,8
SRS_1,629,7,6,11,3,1,3,40,reappraisal,2,797,7,3051,1,961,53,0165.jpg,0165.jpg,3,TrialProc,TrialList,5,reappraisal,reappraisal,9,3,49,9
SRS_1,629,7,6,11,3,1,3,40,resist,2,898,6,3870,1,2107,48,0166.jpg,0166.jpg,3,TrialProc,TrialList,31,resist,resist,10,3,50,10
SRS_1,629,7,6,11,3,1,3,40,resist,4,1222,7,1715,3,1646,50,0331.jpg,0331.jpg,3,TrialProc,TrialList,36,resist,resist,11,3,51,11
SRS_1,629,7,6,11,3,1,3,40,resist,2,1115,7,2275,2,967,43,0106.jpg,0106.jpg,3,TrialProc,TrialList,54,resist,resist,12,3,52,12
SRS_1,629,7,6,11,3,1,3,40,resist,2,2808,7,387,1,419,55,0182.jpg,0182.jpg,3,TrialProc,TrialList,57,resist,resist,13,3,53,13
SRS_1,629,7,6,11,3,1,3,40,reappraisal,5,1130,7,3870,2,2123,24,0400.jpg,0400.jpg,2,TrialProc,TrialList,3,reappraisal,reappraisal,14,3,54,14
SRS_1,629,7,6,11,3,1,3,40,resist,1,2389,7,1357,1,2431,47,0132.jpg,0132.jpg,3,TrialProc,TrialList,34,resist,resist,15,3,55,15
SRS_1,629,7,6,11,3,1,3,40,reappraisal,3,1181,7,1247,3,1396,27,0183.jpg,0183.jpg,2,TrialProc,TrialList,30,reappraisal,reappraisal,16,3,56,16
SRS_1,629,7,6,11,3,1,3,40,reappraisal,2,2268,7,2367,3,1000,23,0157.jpg,0157.jpg,2,TrialProc,TrialList,27,reappraisal,reappraisal,17,3,57,17
SRS_1,629,7,6,11,3,1,3,40,reappraisal,5,3431,7,1241,2,951,46,0120.jpg,0120.jpg,3,TrialProc,TrialList,1,reappraisal,reappraisal,18,3,58,18
SRS_1,629,7,6,11,3,1,3,40,reappraisal,2,1505,6,2474,2,1047,20,0150.jpg,0150.jpg,1,TrialProc,TrialList,15,reappraisal,reappraisal,19,3,59,19
SRS_1,629,7,6,11,3,1,3,40,reappraisal,3,925,6,3890,3,4502,31,0055.jpg,0055.jpg,2,TrialProc,TrialList,19,reappraisal,reappraisal,20,3,60,20
SRS_1,908,5,2,9,1,1,1,0,resist,6,3160,2,4641,5,7047,27,0183.jpg,0183.jpg,2,TrialProc,TrialList,43,resist,resist,1,1,1,1
SRS_1,908,5,2,9,1,1,1,0,resist,1,1765,7,8468,1,5913,51,0163.jpg,0163.jpg,3,TrialProc,TrialList,57,resist,resist,2,1,2,2
SRS_1,908,5,2,9,1,1,1,0,resist,7,1421,4,4322,7,8141,20,0150.jpg,0150.jpg,1,TrialProc,TrialList,52,resist,resist,3,1,3,3
SRS_1,908,5,2,9,1,1,1,0,resist,6,1919,5,10093,5,10530,11,0021.jpg,0021.jpg,1,TrialProc,TrialList,45,resist,resist,4,1,4,4
SRS_1,908,5,2,9,1,1,1,0,resist,4,2901,5,5287,6,1731,39,0089.jpg,0089.jpg,2,TrialProc,TrialList,34,resist,resist,5,1,5,5
SRS_1,908,5,2,9,1,1,1,0,resist,5,2094,4,5198,4,4422,40,0090.jpg,0090.jpg,2,TrialProc,TrialList,31,resist,resist,6,1,6,6
SRS_1,908,5,2,9,1,1,1,0,resist,2,1533,7,7342,6,3072,56,0293.jpg,0293.jpg,3,TrialProc,TrialList,56,resist,resist,7,1,7,7
SRS_1,908,5,2,9,1,1,1,0,reappraisal,7,1181,4,4966,7,1719,23,0157.jpg,0157.jpg,2,TrialProc,TrialList,18,reappraisal,reappraisal,8,1,8,8
SRS_1,908,5,2,9,1,1,1,0,resist,1,1099,7,3272,1,4141,35,0074.jpg,0074.jpg,2,TrialProc,TrialList,33,resist,resist,9,1,9,9
SRS_1,908,5,2,9,1,1,1,0,reappraisal,3,1351,7,3390,2,3711,49,0292.jpg,0292.jpg,3,TrialProc,TrialList,15,reappraisal,reappraisal,10,1,10,10
SRS_1,908,5,2,9,1,1,1,0,resist,4,3914,5,4893,2,5129,36,0080.jpg,0080.jpg,2,TrialProc,TrialList,60,resist,resist,11,1,11,11
SRS_1,908,5,2,9,1,1,1,0,resist,3,2403,7,5961,2,1666,19,0148.jpg,0148.jpg,1,TrialProc,TrialList,50,resist,resist,12,1,12,12
SRS_1,908,5,2,9,1,1,1,0,reappraisal,6,2208,4,5596,7,2036,24,0400.jpg,0400.jpg,2,TrialProc,TrialList,12,reappraisal,reappraisal,13,1,13,13
SRS_1,908,5,2,9,1,1,1,0,reappraisal,3,2338,6,5795,3,2035,28,0186.jpg,0186.jpg,2,TrialProc,TrialList,11,reappraisal,reappraisal,14,1,14,14
SRS_1,908,5,2,9,1,1,1,0,reappraisal,5,2913,3,3431,3,2206,31,0055.jpg,0055.jpg,2,TrialProc,TrialList,29,reappraisal,reappraisal,15,1,15,15
SRS_1,908,5,2,9,1,1,1,0,reappraisal,1,2141,7,1354,1,2003,50,0331.jpg,0331.jpg,3,TrialProc,TrialList,23,reappraisal,reappraisal,16,1,16,16
SRS_1,908,5,2,9,1,1,1,0,reappraisal,2,2691,6,6104,2,1804,18,0138.jpg,0138.jpg,1,TrialProc,TrialList,22,reappraisal,reappraisal,17,1,17,17
SRS_1,908,5,2,9,1,1,1,0,resist,1,867,7,456,1,645,53,0165.jpg,0165.jpg,3,TrialProc,TrialList,39,resist,resist,18,1,18,18
SRS_1,908,5,2,9,1,1,1,0,reappraisal,2,1915,6,6658,2,1463,7,0036.jpg,0036.jpg,1,TrialProc,TrialList,5,reappraisal,reappraisal,19,1,19,19
SRS_1,908,5,2,9,1,1,1,0,reappraisal,1,2869,7,2416,1,1167,45,0111.jpg,0111.jpg,3,TrialProc,TrialList,4,reappraisal,reappraisal,20,1,20,20
SRS_1,908,5,2,10,2,1,2,20,resist,7,1256,4,3814,5,5021,14,0117.jpg,0117.jpg,1,TrialProc,TrialList,40,resist,resist,1,2,21,1
SRS_1,908,5,2,10,2,1,2,20,reappraisal,3,2684,5,5025,2,4848,55,0182.jpg,0182.jpg,3,TrialProc,TrialList,3,reappraisal,reappraisal,2,2,22,2
SRS_1,908,5,2,10,2,1,2,20,reappraisal,1,1070,7,1353,1,1163,8,0042.jpg,0042.jpg,1,TrialProc,TrialList,19,reappraisal,reappraisal,3,2,23,3
SRS_1,908,5,2,10,2,1,2,20,resist,3,1140,6,3108,2,6367,21,0193.jpg,0193.jpg,2,TrialProc,TrialList,53,resist,resist,4,2,24,4
SRS_1,908,5,2,10,2,1,2,20,reappraisal,1,1385,7,1414,1,1445,54,0173.jpg,0173.jpg,3,TrialProc,TrialList,30,reappraisal,reappraisal,5,2,25,5
SRS_1,908,5,2,10,2,1,2,20,reappraisal,1,2915,7,1459,1,1152,32,0056.jpg,0056.jpg,2,TrialProc,TrialList,6,reappraisal,reappraisal,6,2,26,6
SRS_1,908,5,2,10,2,1,2,20,resist,7,1370,3,4112,5,3323,6,0027.jpg,0027.jpg,1,TrialProc,TrialList,36,resist,resist,7,2,27,7
SRS_1,908,5,2,10,2,1,2,20,resist,7,1069,4,4358,6,1544,17,0128.jpg,0128.jpg,1,TrialProc,TrialList,48,resist,resist,8,2,28,8
SRS_1,908,5,2,10,2,1,2,20,reappraisal,6,1114,6,8401,3,3521,5,0016.jpg,0016.jpg,1,TrialProc,TrialList,26,reappraisal,reappraisal,9,2,29,9
SRS_1,908,5,2,10,2,1,2,20,resist,6,516,4,6637,5,3115,34,0062.jpg,0062.jpg,2,TrialProc,TrialList,46,resist,resist,10,2,30,10
SRS_1,908,5,2,10,2,1,2,20,resist,1,918,7,1372,1,764,30,0049.jpg,0049.jpg,2,TrialProc,TrialList,41,resist,resist,11,2,31,11
SRS_1,908,5,2,10,2,1,2,20,reappraisal,4,2302,6,3329,3,2691,46,0120.jpg,0120.jpg,3,TrialProc,TrialList,20,reappraisal,reappraisal,12,2,32,12
SRS_1,908,5,2,10,2,1,2,20,reappraisal,1,1327,7,1041,1,399,43,0106.jpg,0106.jpg,3,TrialProc,TrialList,21,reappraisal,reappraisal,13,2,33,13
SRS_1,908,5,2,10,2,1,2,20,resist,3,1230,6,4593,2,1625,16,0124.jpg,0124.jpg,1,TrialProc,TrialList,58,resist,resist,14,2,34,14
SRS_1,908,5,2,10,2,1,2,20,reappraisal,1,1927,7,1649,1,598,4,0013.jpg,0013.jpg,1,TrialProc,TrialList,7,reappraisal,reappraisal,15,2,35,15
SRS_1,908,5,2,10,2,1,2,20,resist,1,830,7,632,1,510,57,0357.jpg,0357.jpg,3,TrialProc,TrialList,47,resist,resist,16,2,36,16
SRS_1,908,5,2,10,2,1,2,20,reappraisal,3,1561,6,4143,2,640,60,0114.jpg,0114.jpg,3,TrialProc,TrialList,17,reappraisal,reappraisal,17,2,37,17
SRS_1,908,5,2,10,2,1,2,20,resist,4,1734,3,5317,4,1208,3,0009.jpg,0009.jpg,1,TrialProc,TrialList,59,resist,resist,18,2,38,18
SRS_1,908,5,2,10,2,1,2,20,reappraisal,7,712,1,3922,7,3422,37,0082.jpg,0082.jpg,2,TrialProc,TrialList,27,reappraisal,reappraisal,19,2,39,19
SRS_1,908,5,2,10,2,1,2,20,reappraisal,4,4404,5,5888,5,2516,42,0103.jpg,0103.jpg,3,TrialProc,TrialList,13,reappraisal,reappraisal,20,2,40,20
SRS_1,908,5,2,11,3,1,3,40,reappraisal,1,625,7,1272,1,589,29,0189.jpg,0189.jpg,2,TrialProc,TrialList,1,reappraisal,reappraisal,1,3,41,1
SRS_1,908,5,2,11,3,1,3,40,reappraisal,2,2069,7,5505,1,1604,25,0244.jpg,0244.jpg,2,TrialProc,TrialList,14,reappraisal,reappraisal,2,3,42,2
SRS_1,908,5,2,11,3,1,3,40,reappraisal,3,1372,6,2335,2,1785,22,0155.jpg,0155.jpg,2,TrialProc,TrialList,10,reappraisal,reappraisal,3,3,43,3
SRS_1,908,5,2,11,3,1,3,40,reappraisal,1,945,7,860,1,937,38,0083.jpg,0083.jpg,2,TrialProc,TrialList,2,reappraisal,reappraisal,4,3,44,4
SRS_1,908,5,2,11,3,1,3,40,resist,5,1747,4,3745,6,1514,13,0094.jpg,0094.jpg,1,TrialProc,TrialList,51,resist,resist,5,3,45,5
SRS_1,908,5,2,11,3,1,3,40,resist,1,462,7,1394,1,481,48,0166.jpg,0166.jpg,3,TrialProc,TrialList,42,resist,resist,6,3,46,6
SRS_1,908,5,2,11,3,1,3,40,reappraisal,6,670,5,3044,6,370,26,0180.jpg,0180.jpg,2,TrialProc,TrialList,24,reappraisal,reappraisal,7,3,47,7
SRS_1,908,5,2,11,3,1,3,40,reappraisal,1,787,7,376,1,272,52,0164.jpg,0164.jpg,3,TrialProc,TrialList,9,reappraisal,reappraisal,8,3,48,8
SRS_1,908,5,2,11,3,1,3,40,reappraisal,1,1237,7,1059,1,400,59,0465.jpg,0465.jpg,3,TrialProc,TrialList,25,reappraisal,reappraisal,9,3,49,9
SRS_1,908,5,2,11,3,1,3,40,resist,1,1008,7,1305,1,397,58,0441.jpg,0441.jpg,3,TrialProc,TrialList,54,resist,resist,10,3,50,10
SRS_1,908,5,2,11,3,1,3,40,resist,4,940,4,3902,5,866,12,0063.jpg,0063.jpg,1,TrialProc,TrialList,37,resist,resist,11,3,51,11
SRS_1,908,5,2,11,3,1,3,40,reappraisal,7,871,4,4715,6,1670,9,0043.jpg,0043.jpg,1,TrialProc,TrialList,16,reappraisal,reappraisal,12,3,52,12
SRS_1,908,5,2,11,3,1,3,40,resist,6,1291,3,353,5,1259,47,0132.jpg,0132.jpg,3,TrialProc,TrialList,55,resist,resist,13,3,53,13
SRS_1,908,5,2,11,3,1,3,40,reappraisal,3,1088,6,1135,2,929,2,0007.jpg,0007.jpg,1,TrialProc,TrialList,8,reappraisal,reappraisal,14,3,54,14
SRS_1,908,5,2,11,3,1,3,40,resist,5,603,5,2595,4,2083,15,0121.jpg,0121.jpg,1,TrialProc,TrialList,35,resist,resist,15,3,55,15
SRS_1,908,5,2,11,3,1,3,40,reappraisal,6,775,4,725,6,1207,33,0060.jpg,0060.jpg,2,TrialProc,TrialList,28,reappraisal,reappraisal,16,3,56,16
SRS_1,908,5,2,11,3,1,3,40,resist,5,743,4,4353,5,883,1,0006.jpg,0006.jpg,1,TrialProc,TrialList,49,resist,resist,17,3,57,17
SRS_1,908,5,2,11,3,1,3,40,resist,7,359,5,3221,7,2364,44,0514.jpg,0514.jpg,3,TrialProc,TrialList,38,resist,resist,18,3,58,18
SRS_1,908,5,2,11,3,1,3,40,resist,1,701,7,424,1,1295,10,0048.jpg,0048.jpg,1,TrialProc,TrialList,32,resist,resist,19,3,59,19
SRS_1,908,5,2,11,3,1,3,40,resist,1,938,7,397,1,372,41,0097.jpg,0097.jpg,3,TrialProc,TrialList,44,resist,resist,20,3,60,20
SRS_1,1013,4,5,9,1,1,1,0,resist,3,6489,5,7742,3,11600,43,0106.jpg,0106.jpg,3,TrialProc,TrialList,47,resist,resist,1,1,1,1
SRS_1,1013,4,5,9,1,1,1,0,reappraisal,1,3689,7,5697,1,7429,17,0128.jpg,0128.jpg,1,TrialProc,TrialList,4,reappraisal,reappraisal,2,1,2,2
SRS_1,1013,4,5,9,1,1,1,0,reappraisal,2,4644,6,11169,4,11035,30,0049.jpg,0049.jpg,2,TrialProc,TrialList,13,reappraisal,reappraisal,3,1,3,3
SRS_1,1013,4,5,9,1,1,1,0,reappraisal,3,1986,4,10371,5,12277,40,0090.jpg,0090.jpg,2,TrialProc,TrialList,8,reappraisal,reappraisal,4,1,4,4
SRS_1,1013,4,5,9,1,1,1,0,resist,1,6675,5,10026,2,14313,16,0124.jpg,0124.jpg,1,TrialProc,TrialList,43,resist,resist,5,1,5,5
SRS_1,1013,4,5,9,1,1,1,0,resist,3,5150,6,11389,2,12495,19,0148.jpg,0148.jpg,1,TrialProc,TrialList,54,resist,resist,6,1,6,6
SRS_1,1013,4,5,9,1,1,1,0,reappraisal,6,9203,4,12549,5,9887,37,0082.jpg,0082.jpg,2,TrialProc,TrialList,10,reappraisal,reappraisal,7,1,7,7
SRS_1,1013,4,5,9,1,1,1,0,resist,4,4660,6,13980,2,9573,39,0089.jpg,0089.jpg,2,TrialProc,TrialList,32,resist,resist,8,1,8,8
SRS_1,1013,4,5,9,1,1,1,0,resist,2,3110,5,8620,2,8531,32,0056.jpg,0056.jpg,2,TrialProc,TrialList,58,resist,resist,9,1,9,9
SRS_1,1013,4,5,9,1,1,1,0,resist,2,2142,5,14708,4,16256,2,0007.jpg,0007.jpg,1,TrialProc,TrialList,42,resist,resist,10,1,10,10
SRS_1,1013,4,5,9,1,1,1,0,reappraisal,4,7871,6,11075,3,16432,47,0132.jpg,0132.jpg,3,TrialProc,TrialList,7,reappraisal,reappraisal,11,1,11,11
SRS_1,1013,4,5,9,1,1,1,0,resist,1,1128,7,17818,1,4955,13,0094.jpg,0094.jpg,1,TrialProc,TrialList,36,resist,resist,12,1,12,12
SRS_1,1013,4,5,9,1,1,1,0,resist,2,2580,5,31218,1,9507,35,0074.jpg,0074.jpg,2,TrialProc,TrialList,44,resist,resist,13,1,13,13
SRS_1,1013,4,5,9,1,1,1,0,reappraisal,2,5935,4,8920,4,12027,59,0465.jpg,0465.jpg,3,TrialProc,TrialList,29,reappraisal,reappraisal,14,1,14,14
SRS_1,1013,4,5,9,1,1,1,0,resist,3,3179,5,17346,2,6949,10,0048.jpg,0048.jpg,1,TrialProc,TrialList,49,resist,resist,15,1,15,15
SRS_1,1013,4,5,9,1,1,1,0,resist,3,7487,5,9351,2,6305,33,0060.jpg,0060.jpg,2,TrialProc,TrialList,41,resist,resist,16,1,16,16
SRS_1,1013,4,5,9,1,1,1,0,resist,4,4085,3,11674,3,10736,29,0189.jpg,0189.jpg,2,TrialProc,TrialList,33,resist,resist,17,1,17,17
SRS_1,1013,4,5,9,1,1,1,0,resist,4,4563,4,4219,3,3506,22,0155.jpg,0155.jpg,2,TrialProc,TrialList,50,resist,resist,18,1,18,18
SRS_1,1013,4,5,9,1,1,1,0,reappraisal,2,1006,5,10205,3,3357,3,0009.jpg,0009.jpg,1,TrialProc,TrialList,26,reappraisal,reappraisal,19,1,19,19
SRS_1,1013,4,5,9,1,1,1,0,resist,3,2774,4,4799,5,8967,58,0441.jpg,0441.jpg,3,TrialProc,TrialList,39,resist,resist,20,1,20,20
SRS_1,1013,4,5,10,2,1,2,20,reappraisal,5,4780,3,7418,5,4569,51,0163.jpg,0163.jpg,3,TrialProc,TrialList,25,reappraisal,reappraisal,1,2,21,1
SRS_1,1013,4,5,10,2,1,2,20,resist,3,2339,5,11682,3,12223,4,0013.jpg,0013.jpg,1,TrialProc,TrialList,52,resist,resist,2,2,22,2
SRS_1,1013,4,5,10,2,1,2,20,resist,3,6678,5,10422,3,4190,36,0080.jpg,0080.jpg,2,TrialProc,TrialList,40,resist,resist,3,2,23,3
SRS_1,1013,4,5,10,2,1,2,20,reappraisal,3,4622,5,7121,3,11188,50,0331.jpg,0331.jpg,3,TrialProc,TrialList,21,reappraisal,reappraisal,4,2,24,4
SRS_1,1013,4,5,10,2,1,2,20,reappraisal,1,1542,6,8325,2,8376,23,0157.jpg,0157.jpg,2,TrialProc,TrialList,14,reappraisal,reappraisal,5,2,25,5
SRS_1,1013,4,5,10,2,1,2,20,resist,3,3121,5,11703,2,21508,25,0244.jpg,0244.jpg,2,TrialProc,TrialList,60,resist,resist,6,2,26,6
SRS_1,1013,4,5,10,2,1,2,20,reappraisal,4,2768,5,4877,3,10938,9,0043.jpg,0043.jpg,1,TrialProc,TrialList,17,reappraisal,reappraisal,7,2,27,7
SRS_1,1013,4,5,10,2,1,2,20,reappraisal,5,2012,3,4540,5,10174,44,0514.jpg,0514.jpg,3,TrialProc,TrialList,30,reappraisal,reappraisal,8,2,28,8
SRS_1,1013,4,5,10,2,1,2,20,resist,3,1840,5,15146,4,3518,7,0036.jpg,0036.jpg,1,TrialProc,TrialList,45,resist,resist,9,2,29,9
SRS_1,1013,4,5,10,2,1,2,20,resist,3,4712,5,8894,3,3866,31,0055.jpg,0055.jpg,2,TrialProc,TrialList,59,resist,resist,10,2,30,10
SRS_1,1013,4,5,10,2,1,2,20,reappraisal,3,2663,7,4713,2,3300,8,0042.jpg,0042.jpg,1,TrialProc,TrialList,20,reappraisal,reappraisal,11,2,31,11
SRS_1,1013,4,5,10,2,1,2,20,reappraisal,5,368,4,6376,5,5385,12,0063.jpg,0063.jpg,1,TrialProc,TrialList,9,reappraisal,reappraisal,12,2,32,12
SRS_1,1013,4,5,10,2,1,2,20,resist,3,2298,5,15969,2,7379,46,0120.jpg,0120.jpg,3,TrialProc,TrialList,31,resist,resist,13,2,33,13
SRS_1,1013,4,5,10,2,1,2,20,resist,4,3284,5,7528,3,8499,24,0400.jpg,0400.jpg,2,TrialProc,TrialList,56,resist,resist,14,2,34,14
SRS_1,1013,4,5,10,2,1,2,20,reappraisal,4,1776,5,3729,3,6363,1,0006.jpg,0006.jpg,1,TrialProc,TrialList,5,reappraisal,reappraisal,15,2,35,15
SRS_1,1013,4,5,10,2,1,2,20,reappraisal,2,373,6,2859,3,5192,18,0138.jpg,0138.jpg,1,TrialProc,TrialList,16,reappraisal,reappraisal,16,2,36,16
SRS_1,1013,4,5,10,2,1,2,20,resist,5,481,4,4133,4,9448,53,0165.jpg,0165.jpg,3,TrialProc,TrialList,55,resist,resist,17,2,37,17
SRS_1,1013,4,5,10,2,1,2,20,reappraisal,3,2190,5,2039,3,3045,42,0103.jpg,0103.jpg,3,TrialProc,TrialList,23,reappraisal,reappraisal,18,2,38,18
SRS_1,1013,4,5,10,2,1,2,20,reappraisal,3,1923,4,3019,4,5546,60,0114.jpg,0114.jpg,3,TrialProc,TrialList,1,reappraisal,reappraisal,19,2,39,19
SRS_1,1013,4,5,10,2,1,2,20,reappraisal,3,1509,6,4901,2,10961,38,0083.jpg,0083.jpg,2,TrialProc,TrialList,22,reappraisal,reappraisal,20,2,40,20
SRS_1,1013,4,5,11,3,1,3,40,resist,4,4178,4,3022,3,10533,34,0062.jpg,0062.jpg,2,TrialProc,TrialList,51,resist,resist,1,3,41,1
SRS_1,1013,4,5,11,3,1,3,40,reappraisal,2,856,7,1529,1,5107,5,0016.jpg,0016.jpg,1,TrialProc,TrialList,11,reappraisal,reappraisal,2,3,42,2
SRS_1,1013,4,5,11,3,1,3,40,resist,2,343,5,6284,2,1008,52,0164.jpg,0164.jpg,3,TrialProc,TrialList,57,resist,resist,3,3,43,3
SRS_1,1013,4,5,11,3,1,3,40,resist,3,7920,5,2468,2,4577,56,0293.jpg,0293.jpg,3,TrialProc,TrialList,37,resist,resist,4,3,44,4
SRS_1,1013,4,5,11,3,1,3,40,reappraisal,3,329,6,7225,2,3312,14,0117.jpg,0117.jpg,1,TrialProc,TrialList,28,reappraisal,reappraisal,5,3,45,5
SRS_1,1013,4,5,11,3,1,3,40,reappraisal,3,2195,6,4279,2,5579,6,0027.jpg,0027.jpg,1,TrialProc,TrialList,12,reappraisal,reappraisal,6,3,46,6
SRS_1,1013,4,5,11,3,1,3,40,resist,2,4644,4,1425,5,3016,20,0150.jpg,0150.jpg,1,TrialProc,TrialList,35,resist,resist,7,3,47,7
SRS_1,1013,4,5,11,3,1,3,40,reappraisal,4,999,5,2310,3,10809,45,0111.jpg,0111.jpg,3,TrialProc,TrialList,24,reappraisal,reappraisal,8,3,48,8
SRS_1,1013,4,5,11,3,1,3,40,reappraisal,2,1985,4,2975,6,4608,15,0121.jpg,0121.jpg,1,TrialProc,TrialList,2,reappraisal,reappraisal,9,3,49,9
SRS_1,1013,4,5,11,3,1,3,40,reappraisal,3,3639,5,1568,2,2441,28,0186.jpg,0186.jpg,2,TrialProc,TrialList,19,reappraisal,reappraisal,10,3,50,10
SRS_1,1013,4,5,11,3,1,3,40,reappraisal,1,487,6,9713,2,3989,11,0021.jpg,0021.jpg,1,TrialProc,TrialList,15,reappraisal,reappraisal,11,3,51,11
SRS_1,1013,4,5,11,3,1,3,40,resist,3,8077,5,7659,3,4688,27,0183.jpg,0183.jpg,2,TrialProc,TrialList,53,resist,resist,12,3,52,12
SRS_1,1013,4,5,11,3,1,3,40,resist,2,316,5,2143,3,7272,48,0166.jpg,0166.jpg,3,TrialProc,TrialList,34,resist,resist,13,3,53,13
SRS_1,1013,4,5,11,3,1,3,40,resist,4,293,5,3335,2,4657,21,0193.jpg,0193.jpg,2,TrialProc,TrialList,38,resist,resist,14,3,54,14
SRS_1,1013,4,5,11,3,1,3,40,reappraisal,4,5719,2,3646,6,8228,26,0180.jpg,0180.jpg,2,TrialProc,TrialList,27,reappraisal,reappraisal,15,3,55,15
SRS_1,1013,4,5,11,3,1,3,40,resist,4,3603,5,4233,3,2808,49,0292.jpg,0292.jpg,3,TrialProc,TrialList,46,resist,resist,16,3,56,16
SRS_1,1013,4,5,11,3,1,3,40,reappraisal,3,935,4,2484,5,3944,55,0182.jpg,0182.jpg,3,TrialProc,TrialList,3,reappraisal,reappraisal,17,3,57,17
SRS_1,1013,4,5,11,3,1,3,40,reappraisal,4,3979,6,2003,2,3442,41,0097.jpg,0097.jpg,3,TrialProc,TrialList,6,reappraisal,reappraisal,18,3,58,18
SRS_1,1013,4,5,11,3,1,3,40,reappraisal,5,1128,5,2426,3,4296,54,0173.jpg,0173.jpg,3,TrialProc,TrialList,18,reappraisal,reappraisal,19,3,59,19
SRS_1,1013,4,5,11,3,1,3,40,resist,3,2572,6,2937,2,1667,57,0357.jpg,0357.jpg,3,TrialProc,TrialList,48,resist,resist,20,3,60,20
SRS_1,1020,6,4,9,1,1,1,0,reappraisal,7,5258,4,12402,7,7051,35,0074.jpg,0074.jpg,2,TrialProc,TrialList,6,reappraisal,reappraisal,1,1,1,1
SRS_1,1020,6,4,9,1,1,1,0,resist,6,2337,4,5321,6,6404,6,0027.jpg,0027.jpg,1,TrialProc,TrialList,32,resist,resist,2,1,2,2
SRS_1,1020,6,4,9,1,1,1,0,reappraisal,7,1307,4,3783,6,5960,43,0106.jpg,0106.jpg,3,TrialProc,TrialList,23,reappraisal,reappraisal,3,1,3,3
SRS_1,1020,6,4,9,1,1,1,0,resist,4,2697,5,9933,5,8552,1,0006.jpg,0006.jpg,1,TrialProc,TrialList,38,resist,resist,4,1,4,4
SRS_1,1020,6,4,9,1,1,1,0,reappraisal,6,1091,3,3205,6,6653,38,0083.jpg,0083.jpg,2,TrialProc,TrialList,10,reappraisal,reappraisal,5,1,5,5
SRS_1,1020,6,4,9,1,1,1,0,reappraisal,6,1107,4,1802,6,4410,24,0400.jpg,0400.jpg,2,TrialProc,TrialList,29,reappraisal,reappraisal,6,1,6,6
SRS_1,1020,6,4,9,1,1,1,0,reappraisal,5,3713,3,5920,6,2323,12,0063.jpg,0063.jpg,1,TrialProc,TrialList,11,reappraisal,reappraisal,7,1,7,7
SRS_1,1020,6,4,9,1,1,1,0,resist,5,1742,3,3458,5,2575,16,0124.jpg,0124.jpg,1,TrialProc,TrialList,60,resist,resist,8,1,8,8
SRS_1,1020,6,4,9,1,1,1,0,resist,5,1072,4,5222,5,3046,19,0148.jpg,0148.jpg,1,TrialProc,TrialList,47,resist,resist,9,1,9,9
SRS_1,1020,6,4,9,1,1,1,0,reappraisal,4,1700,4,4032,4,4566,26,0180.jpg,0180.jpg,2,TrialProc,TrialList,9,reappraisal,reappraisal,10,1,10,10
SRS_1,1020,6,4,9,1,1,1,0,reappraisal,4,1575,4,3571,4,3324,21,0193.jpg,0193.jpg,2,TrialProc,TrialList,4,reappraisal,reappraisal,11,1,11,11
SRS_1,1020,6,4,9,1,1,1,0,resist,7,2183,3,3047,7,2917,57,0357.jpg,0357.jpg,3,TrialProc,TrialList,51,resist,resist,12,1,12,12
SRS_1,1020,6,4,9,1,1,1,0,resist,7,1048,4,6540,7,3927,8,0042.jpg,0042.jpg,1,TrialProc,TrialList,50,resist,resist,13,1,13,13
SRS_1,1020,6,4,9,1,1,1,0,reappraisal,6,1898,3,4066,6,2112,37,0082.jpg,0082.jpg,2,TrialProc,TrialList,13,reappraisal,reappraisal,14,1,14,14
SRS_1,1020,6,4,9,1,1,1,0,resist,7,827,3,5210,6,1993,17,0128.jpg,0128.jpg,1,TrialProc,TrialList,53,resist,resist,15,1,15,15
SRS_1,1020,6,4,9,1,1,1,0,reappraisal,6,1425,3,2200,5,4800,45,0111.jpg,0111.jpg,3,TrialProc,TrialList,28,reappraisal,reappraisal,16,1,16,16
SRS_1,1020,6,4,9,1,1,1,0,resist,6,1488,3,3137,7,3051,10,0048.jpg,0048.jpg,1,TrialProc,TrialList,56,resist,resist,17,1,17,17
SRS_1,1020,6,4,9,1,1,1,0,resist,4,1329,4,3887,5,3580,49,0292.jpg,0292.jpg,3,TrialProc,TrialList,59,resist,resist,18,1,18,18
SRS_1,1020,6,4,9,1,1,1,0,reappraisal,4,853,3,5688,5,3085,60,0114.jpg,0114.jpg,3,TrialProc,TrialList,16,reappraisal,reappraisal,19,1,19,19
SRS_1,1020,6,4,9,1,1,1,0,resist,4,2466,4,3479,4,2476,50,0331.jpg,0331.jpg,3,TrialProc,TrialList,40,resist,resist,20,1,20,20
SRS_1,1020,6,4,10,2,1,2,20,reappraisal,4,1568,2,3068,5,2465,3,0009.jpg,0009.jpg,1,TrialProc,TrialList,22,reappraisal,reappraisal,1,2,21,1
SRS_1,1020,6,4,10,2,1,2,20,resist,7,878,4,2378,7,858,32,0056.jpg,0056.jpg,2,TrialProc,TrialList,42,resist,resist,2,2,22,2
SRS_1,1020,6,4,10,2,1,2,20,reappraisal,2,1047,1,1242,1,2272,25,0244.jpg,0244.jpg,2,TrialProc,TrialList,5,reappraisal,reappraisal,3,2,23,3
SRS_1,1020,6,4,10,2,1,2,20,reappraisal,4,1540,3,2592,5,1344,14,0117.jpg,0117.jpg,1,TrialProc,TrialList,15,reappraisal,reappraisal,4,2,24,4
SRS_1,1020,6,4,10,2,1,2,20,resist,4,1370,3,3490,5,1911,52,0164.jpg,0164.jpg,3,TrialProc,TrialList,57,resist,resist,5,2,25,5
SRS_1,1020,6,4,10,2,1,2,20,resist,3,1674,2,5266,2,2471,55,0182.jpg,0182.jpg,3,TrialProc,TrialList,44,resist,resist,6,2,26,6
SRS_1,1020,6,4,10,2,1,2,20,resist,5,1260,4,2029,4,6347,27,0183.jpg,0183.jpg,2,TrialProc,TrialList,34,resist,resist,7,2,27,7
SRS_1,1020,6,4,10,2,1,2,20,resist,6,845,3,1111,6,1730,59,0465.jpg,0465.jpg,3,TrialProc,TrialList,45,resist,resist,8,2,28,8
SRS_1,1020,6,4,10,2,1,2,20,resist,3,948,2,996,2,1436,46,0120.jpg,0120.jpg,3,TrialProc,TrialList,48,resist,resist,9,2,29,9
SRS_1,1020,6,4,10,2,1,2,20,resist,5,522,3,1047,4,2813,53,0165.jpg,0165.jpg,3,TrialProc,TrialList,43,resist,resist,10,2,30,10
SRS_1,1020,6,4,10,2,1,2,20,reappraisal,3,1028,4,1551,4,2936,11,0021.jpg,0021.jpg,1,TrialProc,TrialList,8,reappraisal,reappraisal,11,2,31,11
SRS_1,1020,6,4,10,2,1,2,20,reappraisal,5,923,3,2677,5,1785,20,0150.jpg,0150.jpg,1,TrialProc,TrialList,1,reappraisal,reappraisal,12,2,32,12
SRS_1,1020,6,4,10,2,1,2,20,resist,4,874,3,1504,4,1812,30,0049.jpg,0049.jpg,2,TrialProc,TrialList,52,resist,resist,13,2,33,13
SRS_1,1020,6,4,10,2,1,2,20,resist,5,1019,3,1995,5,1914,41,0097.jpg,0097.jpg,3,TrialProc,TrialList,33,resist,resist,14,2,34,14
SRS_1,1020,6,4,10,2,1,2,20,resist,3,1166,4,3002,4,3514,23,0157.jpg,0157.jpg,2,TrialProc,TrialList,41,resist,resist,15,2,35,15
SRS_1,1020,6,4,10,2,1,2,20,reappraisal,3,2253,3,4167,3,2160,22,0155.jpg,0155.jpg,2,TrialProc,TrialList,3,reappraisal,reappraisal,16,2,36,16
SRS_1,1020,6,4,10,2,1,2,20,reappraisal,3,1081,5,1714,3,1709,31,0055.jpg,0055.jpg,2,TrialProc,TrialList,12,reappraisal,reappraisal,17,2,37,17
SRS_1,1020,6,4,10,2,1,2,20,resist,4,1696,3,1997,4,2245,28,0186.jpg,0186.jpg,2,TrialProc,TrialList,49,resist,resist,18,2,38,18
SRS_1,1020,6,4,10,2,1,2,20,reappraisal,6,1106,4,2546,6,1349,29,0189.jpg,0189.jpg,2,TrialProc,TrialList,26,reappraisal,reappraisal,19,2,39,19
SRS_1,1020,6,4,10,2,1,2,20,resist,3,2182,3,1861,3,1746,2,0007.jpg,0007.jpg,1,TrialProc,TrialList,46,resist,resist,20,2,40,20
SRS_1,1020,6,4,11,3,1,3,40,reappraisal,2,1012,4,1327,2,2338,40,0090.jpg,0090.jpg,2,TrialProc,TrialList,27,reappraisal,reappraisal,1,3,41,1
SRS_1,1020,6,4,11,3,1,3,40,resist,3,859,3,2038,3,2102,39,0089.jpg,0089.jpg,2,TrialProc,TrialList,36,resist,resist,2,3,42,2
SRS_1,1020,6,4,11,3,1,3,40,reappraisal,3,1296,4,950,3,2088,15,0121.jpg,0121.jpg,1,TrialProc,TrialList,25,reappraisal,reappraisal,3,3,43,3
SRS_1,1020,6,4,11,3,1,3,40,reappraisal,5,2581,3,1102,4,2193,9,0043.jpg,0043.jpg,1,TrialProc,TrialList,2,reappraisal,reappraisal,4,3,44,4
SRS_1,1020,6,4,11,3,1,3,40,reappraisal,6,881,3,1328,6,1178,18,0138.jpg,0138.jpg,1,TrialProc,TrialList,7,reappraisal,reappraisal,5,3,45,5
SRS_1,1020,6,4,11,3,1,3,40,reappraisal,3,2130,4,1382,3,2758,42,0103.jpg,0103.jpg,3,TrialProc,TrialList,14,reappraisal,reappraisal,6,3,46,6
SRS_1,1020,6,4,11,3,1,3,40,resist,4,1183,4,2278,4,2329,54,0173.jpg,0173.jpg,3,TrialProc,TrialList,54,resist,resist,7,3,47,7
SRS_1,1020,6,4,11,3,1,3,40,reappraisal,3,1140,4,1596,4,1764,36,0080.jpg,0080.jpg,2,TrialProc,TrialList,20,reappraisal,reappraisal,8,3,48,8
SRS_1,1020,6,4,11,3,1,3,40,reappraisal,4,1221,4,3647,4,1421,44,0514.jpg,0514.jpg,3,TrialProc,TrialList,30,reappraisal,reappraisal,9,3,49,9
SRS_1,1020,6,4,11,3,1,3,40,resist,7,1835,3,1768,7,1097,13,0094.jpg,0094.jpg,1,TrialProc,TrialList,31,resist,resist,10,3,50,10
SRS_1,1020,6,4,11,3,1,3,40,reappraisal,7,1412,3,4322,7,1133,33,0060.jpg,0060.jpg,2,TrialProc,TrialList,19,reappraisal,reappraisal,11,3,51,11
SRS_1,1020,6,4,11,3,1,3,40,resist,7,456,3,2962,7,1475,7,0036.jpg,0036.jpg,1,TrialProc,TrialList,55,resist,resist,12,3,52,12
SRS_1,1020,6,4,11,3,1,3,40,reappraisal,4,1527,3,1772,4,1405,34,0062.jpg,0062.jpg,2,TrialProc,TrialList,24,reappraisal,reappraisal,13,3,53,13
SRS_1,1020,6,4,11,3,1,3,40,resist,7,1212,4,2386,7,1434,4,0013.jpg,0013.jpg,1,TrialProc,TrialList,58,resist,resist,14,3,54,14
SRS_1,1020,6,4,11,3,1,3,40,resist,7,1072,3,1055,7,1277,48,0166.jpg,0166.jpg,3,TrialProc,TrialList,35,resist,resist,15,3,55,15
SRS_1,1020,6,4,11,3,1,3,40,reappraisal,6,1129,3,3097,6,748,47,0132.jpg,0132.jpg,3,TrialProc,TrialList,21,reappraisal,reappraisal,16,3,56,16
SRS_1,1020,6,4,11,3,1,3,40,reappraisal,7,926,3,2845,7,1154,58,0441.jpg,0441.jpg,3,TrialProc,TrialList,17,reappraisal,reappraisal,17,3,57,17
SRS_1,1020,6,4,11,3,1,3,40,resist,6,803,3,3042,6,1672,56,0293.jpg,0293.jpg,3,TrialProc,TrialList,39,resist,resist,18,3,58,18
SRS_1,1020,6,4,11,3,1,3,40,resist,6,845,4,3180,6,1196,5,0016.jpg,0016.jpg,1,TrialProc,TrialList,37,resist,resist,19,3,59,19
SRS_1,1020,6,4,11,3,1,3,40,reappraisal,7,900,3,1904,7,635,51,0163.jpg,0163.jpg,3,TrialProc,TrialList,18,reappraisal,reappraisal,20,3,60,20
SRS_1,1616,6,3,9,1,1,1,0,reappraisal,3,3361,5,5722,5,3830,30,0049.jpg,0049.jpg,2,TrialProc,TrialList,14,reappraisal,reappraisal,1,1,1,1
SRS_1,1616,6,3,9,1,1,1,0,reappraisal,4,3628,7,4203,4,2635,56,0293.jpg,0293.jpg,3,TrialProc,TrialList,26,reappraisal,reappraisal,2,1,2,2
SRS_1,1616,6,3,9,1,1,1,0,resist,5,3008,2,5685,5,3882,34,0062.jpg,0062.jpg,2,TrialProc,TrialList,59,resist,resist,3,1,3,3
SRS_1,1616,6,3,9,1,1,1,0,resist,6,3270,2,4622,5,1382,57,0357.jpg,0357.jpg,3,TrialProc,TrialList,41,resist,resist,4,1,4,4
SRS_1,1616,6,3,9,1,1,1,0,resist,2,2790,3,3444,2,1105,23,0157.jpg,0157.jpg,2,TrialProc,TrialList,53,resist,resist,5,1,5,5
SRS_1,1616,6,3,9,1,1,1,0,reappraisal,4,2821,3,4454,3,1779,53,0165.jpg,0165.jpg,3,TrialProc,TrialList,18,reappraisal,reappraisal,6,1,6,6
SRS_1,1616,6,3,9,1,1,1,0,resist,1,2252,1,2221,2,1131,25,0244.jpg,0244.jpg,2,TrialProc,TrialList,44,resist,resist,7,1,7,7
SRS_1,1616,6,3,9,1,1,1,0,reappraisal,4,1485,4,3250,4,1855,31,0055.jpg,0055.jpg,2,TrialProc,TrialList,16,reappraisal,reappraisal,8,1,8,8
SRS_1,1616,6,3,9,1,1,1,0,reappraisal,5,2068,5,4919,4,4203,59,0465.jpg,0465.jpg,3,TrialProc,TrialList,13,reappraisal,reappraisal,9,1,9,9
SRS_1,1616,6,3,9,1,1,1,0,reappraisal,2,1123,3,2216,4,2119,22,0155.jpg,0155.jpg,2,TrialProc,TrialList,23,reappraisal,reappraisal,10,1,10,10
SRS_1,1616,6,3,9,1,1,1,0,reappraisal,6,2970,5,3640,5,439,37,0082.jpg,0082.jpg,2,TrialProc,TrialList,20,reappraisal,reappraisal,11,1,11,11
SRS_1,1616,6,3,9,1,1,1,0,reappraisal,1,397,1,1418,1,369,11,0021.jpg,0021.jpg,1,TrialProc,TrialList,17,reappraisal,reappraisal,12,1,12,12
SRS_1,1616,6,3,9,1,1,1,0,reappraisal,5,4834,3,3272,3,2005,44,0514.jpg,0514.jpg,3,TrialProc,TrialList,6,reappraisal,reappraisal,13,1,13,13
SRS_1,1616,6,3,9,1,1,1,0,reappraisal,3,3581,2,1496,5,739,3,0009.jpg,0009.jpg,1,TrialProc,TrialList,21,reappraisal,reappraisal,14,1,14,14
SRS_1,1616,6,3,9,1,1,1,0,resist,5,2445,1,802,4,433,10,0048.jpg,0048.jpg,1,TrialProc,TrialList,50,resist,resist,15,1,15,15
SRS_1,1616,6,3,9,1,1,1,0,resist,3,1832,1,1757,4,943,49,0292.jpg,0292.jpg,3,TrialProc,TrialList,45,resist,resist,16,1,16,16
SRS_1,1616,6,3,9,1,1,1,0,resist,1,241,2,1053,3,707,12,0063.jpg,0063.jpg,1,TrialProc,TrialList,40,resist,resist,17,1,17,17
SRS_1,1616,6,3,9,1,1,1,0,resist,2,1142,1,1826,3,392,47,0132.jpg,0132.jpg,3,TrialProc,TrialList,60,resist,resist,18,1,18,18
SRS_1,1616,6,3,9,1,1,1,0,resist,4,2408,2,1313,3,2228,45,0111.jpg,0111.jpg,3,TrialProc,TrialList,36,resist,resist,19,1,19,19
SRS_1,1616,6,3,9,1,1,1,0,reappraisal,3,1291,4,636,4,1554,8,0042.jpg,0042.jpg,1,TrialProc,TrialList,22,reappraisal,reappraisal,20,1,20,20
SRS_1,1616,6,3,10,2,1,2,20,reappraisal,2,1733,4,3929,2,484,21,0193.jpg,0193.jpg,2,TrialProc,TrialList,30,reappraisal,reappraisal,1,2,21,1
SRS_1,1616,6,3,10,2,1,2,20,reappraisal,4,3560,2,757,3,4527,17,0128.jpg,0128.jpg,1,TrialProc,TrialList,24,reappraisal,reappraisal,2,2,22,2
SRS_1,1616,6,3,10,2,1,2,20,reappraisal,6,945,3,3900,4,528,20,0150.jpg,0150.jpg,1,TrialProc,TrialList,11,reappraisal,reappraisal,3,2,23,3
SRS_1,1616,6,3,10,2,1,2,20,resist,7,3074,3,9598,4,1422,14,0117.jpg,0117.jpg,1,TrialProc,TrialList,39,resist,resist,4,2,24,4
SRS_1,1616,6,3,10,2,1,2,20,reappraisal,5,1221,3,414,4,1093,46,0120.jpg,0120.jpg,3,TrialProc,TrialList,2,reappraisal,reappraisal,5,2,25,5
SRS_1,1616,6,3,10,2,1,2,20,resist,3,1984,2,386,4,298,19,0148.jpg,0148.jpg,1,TrialProc,TrialList,58,resist,resist,6,2,26,6
SRS_1,1616,6,3,10,2,1,2,20,resist,3,2406,2,2053,4,378,6,0027.jpg,0027.jpg,1,TrialProc,TrialList,43,resist,resist,7,2,27,7
SRS_1,1616,6,3,10,2,1,2,20,reappraisal,1,483,1,983,2,495,55,0182.jpg,0182.jpg,3,TrialProc,TrialList,25,reappraisal,reappraisal,8,2,28,8
SRS_1,1616,6,3,10,2,1,2,20,resist,4,1475,2,1323,4,518,52,0164.jpg,0164.jpg,3,TrialProc,TrialList,37,resist,resist,9,2,29,9
SRS_1,1616,6,3,10,2,1,2,20,reappraisal,3,2441,2,1680,4,4557,16,0124.jpg,0124.jpg,1,TrialProc,TrialList,7,reappraisal,reappraisal,10,2,30,10
SRS_1,1616,6,3,10,2,1,2,20,reappraisal,2,1974,2,2532,3,3007,4,0013.jpg,0013.jpg,1,TrialProc,TrialList,4,reappraisal,reappraisal,11,2,31,11
SRS_1,1616,6,3,10,2,1,2,20,reappraisal,4,1246,1,2955,1,261,7,0036.jpg,0036.jpg,1,TrialProc,TrialList,3,reappraisal,reappraisal,12,2,32,12
SRS_1,1616,6,3,10,2,1,2,20,resist,4,2290,2,6877,2,418,9,0043.jpg,0043.jpg,1,TrialProc,TrialList,55,resist,resist,13,2,33,13
SRS_1,1616,6,3,10,2,1,2,20,reappraisal,3,1785,2,682,3,2406,1,0006.jpg,0006.jpg,1,TrialProc,TrialList,5,reappraisal,reappraisal,14,2,34,14
SRS_1,1616,6,3,10,2,1,2,20,resist,6,1253,1,1921,3,316,43,0106.jpg,0106.jpg,3,TrialProc,TrialList,51,resist,resist,15,2,35,15
SRS_1,1616,6,3,10,2,1,2,20,reappraisal,4,943,1,3622,3,326,50,0331.jpg,0331.jpg,3,TrialProc,TrialList,15,reappraisal,reappraisal,16,2,36,16
SRS_1,1616,6,3,10,2,1,2,20,reappraisal,2,304,1,303,1,250,42,0103.jpg,0103.jpg,3,TrialProc,TrialList,19,reappraisal,reappraisal,17,2,37,17
SRS_1,1616,6,3,10,2,1,2,20,resist,3,2520,2,4665,3,910,60,0114.jpg,0114.jpg,3,TrialProc,TrialList,31,resist,resist,18,2,38,18
SRS_1,1616,6,3,10,2,1,2,20,resist,4,1425,1,685,5,377,36,0080.jpg,0080.jpg,2,TrialProc,TrialList,46,resist,resist,19,2,39,19
SRS_1,1616,6,3,10,2,1,2,20,reappraisal,4,2234,2,1584,5,256,5,0016.jpg,0016.jpg,1,TrialProc,TrialList,12,reappraisal,reappraisal,20,2,40,20
SRS_1,1616,6,3,11,3,1,3,40,reappraisal,2,1823,2,620,2,243,27,0183.jpg,0183.jpg,2,TrialProc,TrialList,27,reappraisal,reappraisal,1,3,41,1
SRS_1,1616,6,3,11,3,1,3,40,reappraisal,3,2745,3,1159,5,656,41,0097.jpg,0097.jpg,3,TrialProc,TrialList,8,reappraisal,reappraisal,2,3,42,2
SRS_1,1616,6,3,11,3,1,3,40,reappraisal,3,1133,3,2357,4,334,38,0083.jpg,0083.jpg,2,TrialProc,TrialList,10,reappraisal,reappraisal,3,3,43,3
SRS_1,1616,6,3,11,3,1,3,40,resist,6,1361,1,3282,5,238,18,0138.jpg,0138.jpg,1,TrialProc,TrialList,56,resist,resist,4,3,44,4
SRS_1,1616,6,3,11,3,1,3,40,resist,2,300,2,521,2,252,29,0189.jpg,0189.jpg,2,TrialProc,TrialList,49,resist,resist,5,3,45,5
SRS_1,1616,6,3,11,3,1,3,40,reappraisal,1,265,5,3363,3,372,15,0121.jpg,0121.jpg,1,TrialProc,TrialList,29,reappraisal,reappraisal,6,3,46,6
SRS_1,1616,6,3,11,3,1,3,40,resist,5,348,2,4393,3,288,48,0166.jpg,0166.jpg,3,TrialProc,TrialList,35,resist,resist,7,3,47,7
SRS_1,1616,6,3,11,3,1,3,40,reappraisal,3,756,2,2386,3,1098,54,0173.jpg,0173.jpg,3,TrialProc,TrialList,1,reappraisal,reappraisal,8,3,48,8
SRS_1,1616,6,3,11,3,1,3,40,resist,4,278,2,2282,3,326,2,0007.jpg,0007.jpg,1,TrialProc,TrialList,48,resist,resist,9,3,49,9
SRS_1,1616,6,3,11,3,1,3,40,resist,3,2945,3,1050,4,320,40,0090.jpg,0090.jpg,2,TrialProc,TrialList,52,resist,resist,10,3,50,10
SRS_1,1616,6,3,11,3,1,3,40,resist,3,883,2,2342,3,280,35,0074.jpg,0074.jpg,2,TrialProc,TrialList,38,resist,resist,11,3,51,11
SRS_1,1616,6,3,11,3,1,3,40,resist,1,333,1,2009,1,448,13,0094.jpg,0094.jpg,1,TrialProc,TrialList,42,resist,resist,12,3,52,12
SRS_1,1616,6,3,11,3,1,3,40,reappraisal,2,1221,2,349,2,286,26,0180.jpg,0180.jpg,2,TrialProc,TrialList,9,reappraisal,reappraisal,13,3,53,13
SRS_1,1616,6,3,11,3,1,3,40,resist,2,378,2,648,1,301,32,0056.jpg,0056.jpg,2,TrialProc,TrialList,57,resist,resist,14,3,54,14
SRS_1,1616,6,3,11,3,1,3,40,reappraisal,4,3737,1,709,5,280,24,0400.jpg,0400.jpg,2,TrialProc,TrialList,28,reappraisal,reappraisal,15,3,55,15
SRS_1,1616,6,3,11,3,1,3,40,resist,4,308,2,1448,4,253,58,0441.jpg,0441.jpg,3,TrialProc,TrialList,34,resist,resist,16,3,56,16
SRS_1,1616,6,3,11,3,1,3,40,resist,1,779,2,3059,3,2592,28,0186.jpg,0186.jpg,2,TrialProc,TrialList,32,resist,resist,17,3,57,17
SRS_1,1616,6,3,11,3,1,3,40,resist,6,464,2,3610,5,346,33,0060.jpg,0060.jpg,2,TrialProc,TrialList,47,resist,resist,18,3,58,18
SRS_1,1616,6,3,11,3,1,3,40,resist,4,787,1,1722,5,957,39,0089.jpg,0089.jpg,2,TrialProc,TrialList,33,resist,resist,19,3,59,19
SRS_1,1616,6,3,11,3,1,3,40,resist,6,902,1,6037,4,2124,51,0163.jpg,0163.jpg,3,TrialProc,TrialList,54,resist,resist,20,3,60,20
SRS_1,1623,4,5,9,1,1,1,0,resist,4,1642,4,4136,3,3018,27,0183.jpg,0183.jpg,2,TrialProc,TrialList,49,resist,resist,1,1,1,1
SRS_1,1623,4,5,9,1,1,1,0,reappraisal,6,2489,5,4620,4,1499,58,0441.jpg,0441.jpg,3,TrialProc,TrialList,12,reappraisal,reappraisal,2,1,2,2
SRS_1,1623,4,5,9,1,1,1,0,reappraisal,7,1599,5,5096,4,3332,8,0042.jpg,0042.jpg,1,TrialProc,TrialList,13,reappraisal,reappraisal,3,1,3,3
SRS_1,1623,4,5,9,1,1,1,0,resist,4,2319,4,5544,4,2338,5,0016.jpg,0016.jpg,1,TrialProc,TrialList,42,resist,resist,4,1,4,4
SRS_1,1623,4,5,9,1,1,1,0,reappraisal,1,1196,7,2627,3,5306,22,0155.jpg,0155.jpg,2,TrialProc,TrialList,21,reappraisal,reappraisal,5,1,5,5
SRS_1,1623,4,5,9,1,1,1,0,reappraisal,3,1661,4,4550,3,2216,15,0121.jpg,0121.jpg,1,TrialProc,TrialList,10,reappraisal,reappraisal,6,1,6,6
SRS_1,1623,4,5,9,1,1,1,0,reappraisal,5,2807,6,1995,3,1674,4,0013.jpg,0013.jpg,1,TrialProc,TrialList,28,reappraisal,reappraisal,7,1,7,7
SRS_1,1623,4,5,9,1,1,1,0,reappraisal,7,1431,5,5342,3,4408,43,0106.jpg,0106.jpg,3,TrialProc,TrialList,5,reappraisal,reappraisal,8,1,8,8
SRS_1,1623,4,5,9,1,1,1,0,reappraisal,6,1863,5,1272,3,1517,45,0111.jpg,0111.jpg,3,TrialProc,TrialList,9,reappraisal,reappraisal,9,1,9,9
SRS_1,1623,4,5,9,1,1,1,0,reappraisal,6,5112,4,2297,5,1644,42,0103.jpg,0103.jpg,3,TrialProc,TrialList,26,reappraisal,reappraisal,10,1,10,10
SRS_1,1623,4,5,9,1,1,1,0,resist,4,1226,4,3206,2,1838,21,0193.jpg,0193.jpg,2,TrialProc,TrialList,46,resist,resist,11,1,11,11
SRS_1,1623,4,5,9,1,1,1,0,reappraisal,2,1724,5,3107,4,1847,46,0120.jpg,0120.jpg,3,TrialProc,TrialList,27,reappraisal,reappraisal,12,1,12,12
SRS_1,1623,4,5,9,1,1,1,0,reappraisal,3,1149,6,1585,3,2385,18,0138.jpg,0138.jpg,1,TrialProc,TrialList,7,reappraisal,reappraisal,13,1,13,13
SRS_1,1623,4,5,9,1,1,1,0,resist,2,1225,4,3268,3,14642,48,0166.jpg,0166.jpg,3,TrialProc,TrialList,58,resist,resist,14,1,14,14
SRS_1,1623,4,5,9,1,1,1,0,reappraisal,5,1240,5,2505,3,6341,56,0293.jpg,0293.jpg,3,TrialProc,TrialList,17,reappraisal,reappraisal,15,1,15,15
SRS_1,1623,4,5,9,1,1,1,0,reappraisal,4,3071,5,2086,3,1818,60,0114.jpg,0114.jpg,3,TrialProc,TrialList,4,reappraisal,reappraisal,16,1,16,16
SRS_1,1623,4,5,9,1,1,1,0,resist,1,2482,5,4935,1,2265,47,0132.jpg,0132.jpg,3,TrialProc,TrialList,35,resist,resist,17,1,17,17
SRS_1,1623,4,5,9,1,1,1,0,resist,6,5503,5,3191,2,3168,13,0094.jpg,0094.jpg,1,TrialProc,TrialList,56,resist,resist,18,1,18,18
SRS_1,1623,4,5,9,1,1,1,0,resist,3,481,5,4173,3,5038,10,0048.jpg,0048.jpg,1,TrialProc,TrialList,34,resist,resist,19,1,19,19
SRS_1,1623,4,5,9,1,1,1,0,reappraisal,4,4628,5,2902,3,1161,35,0074.jpg,0074.jpg,2,TrialProc,TrialList,15,reappraisal,reappraisal,20,1,20,20
SRS_1,1623,4,5,10,2,1,2,20,reappraisal,3,3974,5,8826,2,2145,12,0063.jpg,0063.jpg,1,TrialProc,TrialList,18,reappraisal,reappraisal,1,2,21,1
SRS_1,1623,4,5,10,2,1,2,20,reappraisal,4,2891,7,2058,3,1671,41,0097.jpg,0097.jpg,3,TrialProc,TrialList,11,reappraisal,reappraisal,2,2,22,2
SRS_1,1623,4,5,10,2,1,2,20,resist,3,1956,5,6892,2,1104,32,0056.jpg,0056.jpg,2,TrialProc,TrialList,43,resist,resist,3,2,23,3
SRS_1,1623,4,5,10,2,1,2,20,reappraisal,5,3083,5,2502,3,1522,9,0043.jpg,0043.jpg,1,TrialProc,TrialList,2,reappraisal,reappraisal,4,2,24,4
SRS_1,1623,4,5,10,2,1,2,20,resist,2,509,6,3786,2,1539,36,0080.jpg,0080.jpg,2,TrialProc,TrialList,52,resist,resist,5,2,25,5
SRS_1,1623,4,5,10,2,1,2,20,reappraisal,1,1692,7,3016,1,407,37,0082.jpg,0082.jpg,2,TrialProc,TrialList,16,reappraisal,reappraisal,6,2,26,6
SRS_1,1623,4,5,10,2,1,2,20,resist,6,2534,5,4540,2,2383,55,0182.jpg,0182.jpg,3,TrialProc,TrialList,41,resist,resist,7,2,27,7
SRS_1,1623,4,5,10,2,1,2,20,reappraisal,2,455,5,3012,2,1923,50,0331.jpg,0331.jpg,3,TrialProc,TrialList,19,reappraisal,reappraisal,8,2,28,8
SRS_1,1623,4,5,10,2,1,2,20,resist,4,1310,5,3841,2,727,26,0180.jpg,0180.jpg,2,TrialProc,TrialList,39,resist,resist,9,2,29,9
SRS_1,1623,4,5,10,2,1,2,20,resist,3,1738,5,4066,2,703,17,0128.jpg,0128.jpg,1,TrialProc,TrialList,59,resist,resist,10,2,30,10
SRS_1,1623,4,5,10,2,1,2,20,resist,2,675,5,5722,2,3317,16,0124.jpg,0124.jpg,1,TrialProc,TrialList,44,resist,resist,11,2,31,11
SRS_1,1623,4,5,10,2,1,2,20,reappraisal,6,2001,6,1494,3,970,51,0163.jpg,0163.jpg,3,TrialProc,TrialList,14,reappraisal,reappraisal,12,2,32,12
SRS_1,1623,4,5,10,2,1,2,20,resist,5,1379,4,4662,2,3363,30,0049.jpg,0049.jpg,2,TrialProc,TrialList,33,resist,resist,13,2,33,13
SRS_1,1623,4,5,10,2,1,2,20,resist,2,3252,3,5324,2,4424,25,0244.jpg,0244.jpg,2,TrialProc,TrialList,37,resist,resist,14,2,34,14
SRS_1,1623,4,5,10,2,1,2,20,resist,1,350,7,1385,1,321,44,0514.jpg,0514.jpg,3,TrialProc,TrialList,60,resist,resist,15,2,35,15
SRS_1,1623,4,5,10,2,1,2,20,reappraisal,5,1268,5,3054,3,1260,7,0036.jpg,0036.jpg,1,TrialProc,TrialList,8,reappraisal,reappraisal,16,2,36,16
SRS_1,1623,4,5,10,2,1,2,20,resist,3,4145,5,4016,2,2775,2,0007.jpg,0007.jpg,1,TrialProc,TrialList,47,resist,resist,17,2,37,17
SRS_1,1623,4,5,10,2,1,2,20,resist,6,1175,5,1367,3,4928,33,0060.jpg,0060.jpg,2,TrialProc,TrialList,51,resist,resist,18,2,38,18
SRS_1,1623,4,5,10,2,1,2,20,reappraisal,4,2251,6,2023,4,2181,54,0173.jpg,0173.jpg,3,TrialProc,TrialList,29,reappraisal,reappraisal,19,2,39,19
SRS_1,1623,4,5,10,2,1,2,20,reappraisal,5,3670,7,626,2,3288,20,0150.jpg,0150.jpg,1,TrialProc,TrialList,6,reappraisal,reappraisal,20,2,40,20
SRS_1,1623,4,5,11,3,1,3,40,reappraisal,7,1700,5,4597,4,5805,39,0089.jpg,0089.jpg,2,TrialProc,TrialList,1,reappraisal,reappraisal,1,3,41,1
SRS_1,1623,4,5,11,3,1,3,40,resist,4,1693,4,6183,2,1960,52,0164.jpg,0164.jpg,3,TrialProc,TrialList,55,resist,resist,2,3,42,2
SRS_1,1623,4,5,11,3,1,3,40,resist,5,2241,3,12041,2,3791,6,0027.jpg,0027.jpg,1,TrialProc,TrialList,57,resist,resist,3,3,43,3
SRS_1,1623,4,5,11,3,1,3,40,reappraisal,5,3919,5,4757,3,5047,38,0083.jpg,0083.jpg,2,TrialProc,TrialList,30,reappraisal,reappraisal,4,3,44,4
SRS_1,1623,4,5,11,3,1,3,40,reappraisal,5,1349,5,2270,5,1923,59,0465.jpg,0465.jpg,3,TrialProc,TrialList,20,reappraisal,reappraisal,5,3,45,5
SRS_1,1623,4,5,11,3,1,3,40,reappraisal,4,2406,5,6447,4,973,28,0186.jpg,0186.jpg,2,TrialProc,TrialList,23,reappraisal,reappraisal,6,3,46,6
SRS_1,1623,4,5,11,3,1,3,40,resist,6,478,4,12164,2,2958,31,0055.jpg,0055.jpg,2,TrialProc,TrialList,54,resist,resist,7,3,47,7
SRS_1,1623,4,5,11,3,1,3,40,resist,5,2287,6,6614,2,1550,49,0292.jpg,0292.jpg,3,TrialProc,TrialList,53,resist,resist,8,3,48,8
SRS_1,1623,4,5,11,3,1,3,40,reappraisal,6,991,6,2738,5,2045,57,0357.jpg,0357.jpg,3,TrialProc,TrialList,22,reappraisal,reappraisal,9,3,49,9
SRS_1,1623,4,5,11,3,1,3,40,resist,4,5898,4,4354,2,884,40,0090.jpg,0090.jpg,2,TrialProc,TrialList,45,resist,resist,10,3,50,10
SRS_1,1623,4,5,11,3,1,3,40,reappraisal,4,1216,5,2050,4,487,29,0189.jpg,0189.jpg,2,TrialProc,TrialList,3,reappraisal,reappraisal,11,3,51,11
SRS_1,1623,4,5,11,3,1,3,40,reappraisal,5,803,4,1669,4,3594,14,0117.jpg,0117.jpg,1,TrialProc,TrialList,25,reappraisal,reappraisal,12,3,52,12
SRS_1,1623,4,5,11,3,1,3,40,resist,1,913,5,12098,2,4999,3,0009.jpg,0009.jpg,1,TrialProc,TrialList,38,resist,resist,13,3,53,13
SRS_1,1623,4,5,11,3,1,3,40,resist,2,1623,4,2921,2,596,11,0021.jpg,0021.jpg,1,TrialProc,TrialList,32,resist,resist,14,3,54,14
SRS_1,1623,4,5,11,3,1,3,40,resist,4,948,4,824,2,327,23,0157.jpg,0157.jpg,2,TrialProc,TrialList,40,resist,resist,15,3,55,15
SRS_1,1623,4,5,11,3,1,3,40,reappraisal,6,2042,7,741,2,2215,53,0165.jpg,0165.jpg,3,TrialProc,TrialList,24,reappraisal,reappraisal,16,3,56,16
SRS_1,1623,4,5,11,3,1,3,40,resist,5,670,3,6173,2,6775,1,0006.jpg,0006.jpg,1,TrialProc,TrialList,48,resist,resist,17,3,57,17
SRS_1,1623,4,5,11,3,1,3,40,resist,4,1751,4,2096,2,507,24,0400.jpg,0400.jpg,2,TrialProc,TrialList,31,resist,resist,18,3,58,18
SRS_1,1623,4,5,11,3,1,3,40,resist,2,351,4,3501,2,265,19,0148.jpg,0148.jpg,1,TrialProc,TrialList,36,resist,resist,19,3,59,19
SRS_1,1623,4,5,11,3,1,3,40,resist,2,310,4,1880,2,229,34,0062.jpg,0062.jpg,2,TrialProc,TrialList,50,resist,resist,20,3,60,20
SRS_1,16231,6,3,9,1,1,1,0,resist,5,3415,4,3693,5,9281,15,0121.jpg,0121.jpg,1,TrialProc,TrialList,36,resist,resist,1,1,1,1
SRS_1,16231,6,3,9,1,1,1,0,reappraisal,5,4862,6,5376,5,5936,21,0193.jpg,0193.jpg,2,TrialProc,TrialList,10,reappraisal,reappraisal,2,1,2,2
SRS_1,16231,6,3,9,1,1,1,0,reappraisal,7,2011,3,5893,6,4289,7,0036.jpg,0036.jpg,1,TrialProc,TrialList,5,reappraisal,reappraisal,3,1,3,3
SRS_1,16231,6,3,9,1,1,1,0,resist,7,2797,4,4953,6,3780,56,0293.jpg,0293.jpg,3,TrialProc,TrialList,38,resist,resist,4,1,4,4
SRS_1,16231,6,3,9,1,1,1,0,resist,6,2404,5,3667,6,5456,9,0043.jpg,0043.jpg,1,TrialProc,TrialList,56,resist,resist,5,1,5,5
SRS_1,16231,6,3,9,1,1,1,0,reappraisal,2,3757,7,5112,6,4467,25,0244.jpg,0244.jpg,2,TrialProc,TrialList,22,reappraisal,reappraisal,6,1,6,6
SRS_1,16231,6,3,9,1,1,1,0,reappraisal,7,3088,4,3067,5,2952,38,0083.jpg,0083.jpg,2,TrialProc,TrialList,25,reappraisal,reappraisal,7,1,7,7
SRS_1,16231,6,3,9,1,1,1,0,reappraisal,2,1914,6,4909,6,3849,28,0186.jpg,0186.jpg,2,TrialProc,TrialList,2,reappraisal,reappraisal,8,1,8,8
SRS_1,16231,6,3,9,1,1,1,0,resist,5,2919,6,3098,4,4198,37,0082.jpg,0082.jpg,2,TrialProc,TrialList,57,resist,resist,9,1,9,9
SRS_1,16231,6,3,9,1,1,1,0,resist,6,1853,3,4331,6,2709,14,0117.jpg,0117.jpg,1,TrialProc,TrialList,37,resist,resist,10,1,10,10
SRS_1,16231,6,3,9,1,1,1,0,reappraisal,4,2880,5,3628,5,2890,16,0124.jpg,0124.jpg,1,TrialProc,TrialList,15,reappraisal,reappraisal,11,1,11,11
SRS_1,16231,6,3,9,1,1,1,0,resist,6,3774,4,4124,4,5543,42,0103.jpg,0103.jpg,3,TrialProc,TrialList,41,resist,resist,12,1,12,12
SRS_1,16231,6,3,9,1,1,1,0,reappraisal,7,1833,4,3232,4,2671,3,0009.jpg,0009.jpg,1,TrialProc,TrialList,14,reappraisal,reappraisal,13,1,13,13
SRS_1,16231,6,3,9,1,1,1,0,reappraisal,2,2651,6,2724,4,3255,44,0514.jpg,0514.jpg,3,TrialProc,TrialList,4,reappraisal,reappraisal,14,1,14,14
SRS_1,16231,6,3,9,1,1,1,0,resist,4,2428,5,4148,5,4014,39,0089.jpg,0089.jpg,2,TrialProc,TrialList,58,resist,resist,15,1,15,15
SRS_1,16231,6,3,9,1,1,1,0,resist,2,2341,3,3241,3,3600,47,0132.jpg,0132.jpg,3,TrialProc,TrialList,60,resist,resist,16,1,16,16
SRS_1,16231,6,3,9,1,1,1,0,reappraisal,7,2007,4,4800,6,1904,5,0016.jpg,0016.jpg,1,TrialProc,TrialList,30,reappraisal,reappraisal,17,1,17,17
SRS_1,16231,6,3,9,1,1,1,0,resist,6,3587,6,6169,5,3938,60,0114.jpg,0114.jpg,3,TrialProc,TrialList,54,resist,resist,18,1,18,18
SRS_1,16231,6,3,9,1,1,1,0,reappraisal,4,2428,6,4880,5,1893,26,0180.jpg,0180.jpg,2,TrialProc,TrialList,9,reappraisal,reappraisal,19,1,19,19
SRS_1,16231,6,3,9,1,1,1,0,reappraisal,6,3537,4,4591,6,3535,6,0027.jpg,0027.jpg,1,TrialProc,TrialList,11,reappraisal,reappraisal,20,1,20,20
SRS_1,16231,6,3,10,2,1,2,20,reappraisal,5,3542,5,2332,6,2527,53,0165.jpg,0165.jpg,3,TrialProc,TrialList,8,reappraisal,reappraisal,1,2,21,1
SRS_1,16231,6,3,10,2,1,2,20,resist,7,1385,3,4395,6,2442,51,0163.jpg,0163.jpg,3,TrialProc,TrialList,48,resist,resist,2,2,22,2
SRS_1,16231,6,3,10,2,1,2,20,reappraisal,6,1912,6,3657,6,3063,20,0150.jpg,0150.jpg,1,TrialProc,TrialList,17,reappraisal,reappraisal,3,2,23,3
SRS_1,16231,6,3,10,2,1,2,20,reappraisal,2,2364,6,2595,4,3314,48,0166.jpg,0166.jpg,3,TrialProc,TrialList,24,reappraisal,reappraisal,4,2,24,4
SRS_1,16231,6,3,10,2,1,2,20,reappraisal,7,4286,4,3169,5,2714,52,0164.jpg,0164.jpg,3,TrialProc,TrialList,26,reappraisal,reappraisal,5,2,25,5
SRS_1,16231,6,3,10,2,1,2,20,reappraisal,7,1549,4,3642,6,2512,59,0465.jpg,0465.jpg,3,TrialProc,TrialList,27,reappraisal,reappraisal,6,2,26,6
SRS_1,16231,6,3,10,2,1,2,20,resist,5,2299,5,4355,5,2901,19,0148.jpg,0148.jpg,1,TrialProc,TrialList,53,resist,resist,7,2,27,7
SRS_1,16231,6,3,10,2,1,2,20,resist,4,2009,6,5519,4,2211,50,0331.jpg,0331.jpg,3,TrialProc,TrialList,52,resist,resist,8,2,28,8
SRS_1,16231,6,3,10,2,1,2,20,resist,6,1474,3,4545,6,2331,43,0106.jpg,0106.jpg,3,TrialProc,TrialList,33,resist,resist,9,2,29,9
SRS_1,16231,6,3,10,2,1,2,20,resist,3,3437,6,5105,3,3637,12,0063.jpg,0063.jpg,1,TrialProc,TrialList,45,resist,resist,10,2,30,10
SRS_1,16231,6,3,10,2,1,2,20,resist,3,2019,6,3366,4,1768,1,0006.jpg,0006.jpg,1,TrialProc,TrialList,47,resist,resist,11,2,31,11
SRS_1,16231,6,3,10,2,1,2,20,resist,5,2217,4,3235,6,2065,11,0021.jpg,0021.jpg,1,TrialProc,TrialList,44,resist,resist,12,2,32,12
SRS_1,16231,6,3,10,2,1,2,20,reappraisal,3,1686,6,5161,5,2770,34,0062.jpg,0062.jpg,2,TrialProc,TrialList,12,reappraisal,reappraisal,13,2,33,13
SRS_1,16231,6,3,10,2,1,2,20,reappraisal,6,2019,4,4100,6,2783,35,0074.jpg,0074.jpg,2,TrialProc,TrialList,20,reappraisal,reappraisal,14,2,34,14
SRS_1,16231,6,3,10,2,1,2,20,resist,7,1400,3,4553,6,2667,17,0128.jpg,0128.jpg,1,TrialProc,TrialList,43,resist,resist,15,2,35,15
SRS_1,16231,6,3,10,2,1,2,20,reappraisal,6,2656,3,3081,6,2653,54,0173.jpg,0173.jpg,3,TrialProc,TrialList,28,reappraisal,reappraisal,16,2,36,16
SRS_1,16231,6,3,10,2,1,2,20,reappraisal,5,1611,4,5083,5,3264,36,0080.jpg,0080.jpg,2,TrialProc,TrialList,13,reappraisal,reappraisal,17,2,37,17
